"","STUDYID","DOMAIN","USUBJID","DSSEQ","DSSPID","DSTERM","DSDECOD","DSCAT","VISITNUM","VISIT","DSDTC","DSSTDTC","DSSTDY"
"1","CDISCPILOT01","DS","01-701-1015",1,NA,"RANDOMIZED","RANDOMIZED","PROTOCOL MILESTONE",3,"BASELINE","2014-01-02","2014-01-02",1
"2","CDISCPILOT01","DS","01-701-1015",2,NA,"PROTOCOL COMPLETED","COMPLETED","DISPOSITION EVENT",13,"WEEK 26","2014-07-02","2014-07-02",182
"3","CDISCPILOT01","DS","01-701-1015",3,NA,"FINAL LAB VISIT","FINAL LAB VISIT","OTHER EVENT",13,"WEEK 26","2014-07-02T11:45","2014-07-02",182
"4","CDISCPILOT01","DS","01-701-1023",1,NA,"RANDOMIZED","RANDOMIZED","PROTOCOL MILESTONE",3,"BASELINE","2012-08-05","2012-08-05",1
"5","CDISCPILOT01","DS","01-701-1023",2,"24","ADVERSE EVENT","ADVERSE EVENT","DISPOSITION EVENT",5,"WEEK 4","2012-09-02","2012-09-02",29
"6","CDISCPILOT01","DS","01-701-1023",3,NA,"FINAL LAB VISIT","FINAL LAB VISIT","OTHER EVENT",5,"WEEK 4","2012-09-02T10:15","2012-09-02",29
"7","CDISCPILOT01","DS","01-701-1023",4,NA,"FINAL RETRIEVAL VISIT","FINAL RETRIEVAL VISIT","OTHER EVENT",201,"RETRIEVAL","2013-02-18","2013-02-18",198
"8","CDISCPILOT01","DS","01-701-1028",1,NA,"RANDOMIZED","RANDOMIZED","PROTOCOL MILESTONE",3,"BASELINE","2013-07-19","2013-07-19",1
"9","CDISCPILOT01","DS","01-701-1028",2,NA,"PROTOCOL COMPLETED","COMPLETED","DISPOSITION EVENT",13,"WEEK 26","2014-01-14","2014-01-14",180
"10","CDISCPILOT01","DS","01-701-1028",3,NA,"FINAL LAB VISIT","FINAL LAB VISIT","OTHER EVENT",13,"WEEK 26","2014-01-14T11:10","2014-01-14",180
"11","CDISCPILOT01","DS","01-701-1033",1,NA,"RANDOMIZED","RANDOMIZED","PROTOCOL MILESTONE",3,"BASELINE","2014-03-18","2014-03-18",1
"12","CDISCPILOT01","DS","01-701-1033",2,NA,"SPONSOR DECISION (STUDY OR PATIENT DISCONTINUED BY THE SPONSOR)","STUDY TERMINATED BY SPONSOR","DISPOSITION EVENT",5,"WEEK 4","2014-04-14","2014-04-14",28
"13","CDISCPILOT01","DS","01-701-1033",3,NA,"FINAL LAB VISIT","FINAL LAB VISIT","OTHER EVENT",5,"WEEK 4","2014-04-14T10:38","2014-04-14",28
"14","CDISCPILOT01","DS","01-701-1033",4,NA,"FINAL RETRIEVAL VISIT","FINAL RETRIEVAL VISIT","OTHER EVENT",201,"RETRIEVAL","2014-09-15","2014-09-15",182
"15","CDISCPILOT01","DS","01-701-1034",1,NA,"RANDOMIZED","RANDOMIZED","PROTOCOL MILESTONE",3,"BASELINE","2014-07-01","2014-07-01",1
"16","CDISCPILOT01","DS","01-701-1034",2,NA,"PROTOCOL COMPLETED","COMPLETED","DISPOSITION EVENT",13,"WEEK 26","2014-12-30","2014-12-30",183
"17","CDISCPILOT01","DS","01-701-1034",3,NA,"FINAL LAB VISIT","FINAL LAB VISIT","OTHER EVENT",13,"WEEK 26","2014-12-30T09:50","2014-12-30",183
"18","CDISCPILOT01","DS","01-701-1047",1,NA,"RANDOMIZED","RANDOMIZED","PROTOCOL MILESTONE",3,"BASELINE","2013-02-12","2013-02-12",1
"19","CDISCPILOT01","DS","01-701-1047",2,"17","ADVERSE EVENT","ADVERSE EVENT","DISPOSITION EVENT",6,"AMBUL ECG REMOVAL","2013-03-29","2013-03-29",46
"20","CDISCPILOT01","DS","01-701-1047",3,NA,"FINAL LAB VISIT","FINAL LAB VISIT","OTHER EVENT",6.1,"UNSCHEDULED 6.1","2013-04-07T11:20","2013-04-07",55
"21","CDISCPILOT01","DS","01-701-1047",4,NA,"FINAL RETRIEVAL VISIT","FINAL RETRIEVAL VISIT","OTHER EVENT",201,"RETRIEVAL","2013-07-28","2013-07-28",167
"22","CDISCPILOT01","DS","01-701-1057",1,NA,"SCREEN FAILURE","SCREEN FAILURE","DISPOSITION EVENT",1,"SCREENING 1","2013-12-20","2013-12-20",NA
"23","CDISCPILOT01","DS","01-701-1097",1,NA,"RANDOMIZED","RANDOMIZED","PROTOCOL MILESTONE",3,"BASELINE","2014-01-01","2014-01-01",1
"24","CDISCPILOT01","DS","01-701-1097",2,NA,"PROTOCOL COMPLETED","COMPLETED","DISPOSITION EVENT",13,"WEEK 26","2014-07-09","2014-07-09",190
"25","CDISCPILOT01","DS","01-701-1097",3,NA,"FINAL LAB VISIT","FINAL LAB VISIT","OTHER EVENT",13,"WEEK 26","2014-07-09T09:39","2014-07-09",190
"26","CDISCPILOT01","DS","01-701-1111",1,NA,"RANDOMIZED","RANDOMIZED","PROTOCOL MILESTONE",3,"BASELINE","2012-09-07","2012-09-07",1
"27","CDISCPILOT01","DS","01-701-1111",2,"32","ADVERSE EVENT","ADVERSE EVENT","DISPOSITION EVENT",4,"WEEK 2","2012-09-17","2012-09-17",11
"28","CDISCPILOT01","DS","01-701-1111",3,NA,"FINAL LAB VISIT","FINAL LAB VISIT","OTHER EVENT",4,"WEEK 2","2012-09-17T11:48","2012-09-17",11
"29","CDISCPILOT01","DS","01-701-1111",4,NA,"FINAL RETRIEVAL VISIT","FINAL RETRIEVAL VISIT","OTHER EVENT",201,"RETRIEVAL","2013-02-22","2013-02-22",169
"30","CDISCPILOT01","DS","01-701-1115",1,NA,"RANDOMIZED","RANDOMIZED","PROTOCOL MILESTONE",3,"BASELINE","2012-11-30","2012-11-30",1
"31","CDISCPILOT01","DS","01-701-1115",2,"18","ADVERSE EVENT","ADVERSE EVENT","DISPOSITION EVENT",8,"WEEK 8","2013-01-23","2013-01-23",55
"32","CDISCPILOT01","DS","01-701-1115",3,NA,"FINAL LAB VISIT","FINAL LAB VISIT","OTHER EVENT",8,"WEEK 8","2013-01-23T12:13","2013-01-23",55
"33","CDISCPILOT01","DS","01-701-1115",4,NA,"FINAL RETRIEVAL VISIT","FINAL RETRIEVAL VISIT","OTHER EVENT",201,"RETRIEVAL","2013-05-20","2013-05-20",172
"34","CDISCPILOT01","DS","01-701-1118",1,NA,"RANDOMIZED","RANDOMIZED","PROTOCOL MILESTONE",3,"BASELINE","2014-03-12","2014-03-12",1
"35","CDISCPILOT01","DS","01-701-1118",2,NA,"PROTOCOL COMPLETED","COMPLETED","DISPOSITION EVENT",13,"WEEK 26","2014-09-09","2014-09-09",182
"36","CDISCPILOT01","DS","01-701-1118",3,NA,"FINAL LAB VISIT","FINAL LAB VISIT","OTHER EVENT",13,"WEEK 26","2014-09-09T13:28","2014-09-09",182
"37","CDISCPILOT01","DS","01-701-1130",1,NA,"RANDOMIZED","RANDOMIZED","PROTOCOL MILESTONE",3,"BASELINE","2014-02-15","2014-02-15",1
"38","CDISCPILOT01","DS","01-701-1130",2,NA,"PROTOCOL COMPLETED","COMPLETED","DISPOSITION EVENT",13,"WEEK 26","2014-08-16","2014-08-16",183
"39","CDISCPILOT01","DS","01-701-1130",3,NA,"FINAL LAB VISIT","FINAL LAB VISIT","OTHER EVENT",13,"WEEK 26","2014-08-16T13:10","2014-08-16",183
"40","CDISCPILOT01","DS","01-701-1133",1,NA,"RANDOMIZED","RANDOMIZED","PROTOCOL MILESTONE",3,"BASELINE","2012-10-28","2012-10-28",1
"41","CDISCPILOT01","DS","01-701-1133",2,NA,"PROTOCOL COMPLETED","COMPLETED","DISPOSITION EVENT",13,"WEEK 26","2013-04-29","2013-04-29",184
"42","CDISCPILOT01","DS","01-701-1133",3,NA,"FINAL LAB VISIT","FINAL LAB VISIT","OTHER EVENT",13,"WEEK 26","2013-04-29T10:13","2013-04-29",184
"43","CDISCPILOT01","DS","01-701-1145",1,NA,"SCREEN FAILURE","SCREEN FAILURE","DISPOSITION EVENT",1,"SCREENING 1","2013-09-05","2013-09-05",NA
"44","CDISCPILOT01","DS","01-701-1146",1,NA,"RANDOMIZED","RANDOMIZED","PROTOCOL MILESTONE",3,"BASELINE","2013-05-20","2013-05-20",1
"45","CDISCPILOT01","DS","01-701-1146",2,"20","ADVERSE EVENT","ADVERSE EVENT","DISPOSITION EVENT",7,"WEEK 6","2013-06-30","2013-06-30",42
"46","CDISCPILOT01","DS","01-701-1146",3,NA,"FINAL LAB VISIT","FINAL LAB VISIT","OTHER EVENT",7,"WEEK 6","2013-06-30T11:44","2013-06-30",42
"47","CDISCPILOT01","DS","01-701-1148",1,NA,"RANDOMIZED","RANDOMIZED","PROTOCOL MILESTONE",3,"BASELINE","2013-08-23","2013-08-23",1
"48","CDISCPILOT01","DS","01-701-1148",2,NA,"PROTOCOL COMPLETED","COMPLETED","DISPOSITION EVENT",13,"WEEK 26","2014-02-20","2014-02-20",182
"49","CDISCPILOT01","DS","01-701-1148",3,NA,"FINAL LAB VISIT","FINAL LAB VISIT","OTHER EVENT",13,"WEEK 26","2014-02-20T15:07","2014-02-20",182
"50","CDISCPILOT01","DS","01-701-1153",1,NA,"RANDOMIZED","RANDOMIZED","PROTOCOL MILESTONE",3,"BASELINE","2013-09-23","2013-09-23",1
"51","CDISCPILOT01","DS","01-701-1153",2,NA,"PROTOCOL COMPLETED","COMPLETED","DISPOSITION EVENT",13,"WEEK 26","2014-04-01","2014-04-01",191
"52","CDISCPILOT01","DS","01-701-1153",3,NA,"FINAL LAB VISIT","FINAL LAB VISIT","OTHER EVENT",13,"WEEK 26","2014-04-01T14:25","2014-04-01",191
"53","CDISCPILOT01","DS","01-701-1162",1,NA,"SCREEN FAILURE","SCREEN FAILURE","DISPOSITION EVENT",1,"SCREENING 1","2013-04-18","2013-04-18",NA
"54","CDISCPILOT01","DS","01-701-1176",1,NA,"SCREEN FAILURE","SCREEN FAILURE","DISPOSITION EVENT",1,"SCREENING 1","2012-09-30","2012-09-30",NA
"55","CDISCPILOT01","DS","01-701-1180",1,NA,"RANDOMIZED","RANDOMIZED","PROTOCOL MILESTONE",3,"BASELINE","2013-02-12","2013-02-12",1
"56","CDISCPILOT01","DS","01-701-1180",2," 7","ADVERSE EVENT","ADVERSE EVENT","DISPOSITION EVENT",7,"WEEK 6","2013-03-23","2013-03-23",40
"57","CDISCPILOT01","DS","01-701-1180",3,NA,"FINAL LAB VISIT","FINAL LAB VISIT","OTHER EVENT",7,"WEEK 6","2013-03-23T12:45","2013-03-23",40
"58","CDISCPILOT01","DS","01-701-1181",1,NA,"RANDOMIZED","RANDOMIZED","PROTOCOL MILESTONE",3,"BASELINE","2013-12-05","2013-12-05",1
"59","CDISCPILOT01","DS","01-701-1181",2,"24","ADVERSE EVENT","ADVERSE EVENT","DISPOSITION EVENT",4,"WEEK 2","2013-12-12","2013-12-12",8
"60","CDISCPILOT01","DS","01-701-1181",3,NA,"FINAL LAB VISIT","FINAL LAB VISIT","OTHER EVENT",4,"WEEK 2","2013-12-12T12:09","2013-12-12",8
"61","CDISCPILOT01","DS","01-701-1181",4,NA,"FINAL RETRIEVAL VISIT","FINAL RETRIEVAL VISIT","OTHER EVENT",201,"RETRIEVAL","2014-05-23","2014-05-23",170
"62","CDISCPILOT01","DS","01-701-1188",1,NA,"RANDOMIZED","RANDOMIZED","PROTOCOL MILESTONE",3,"BASELINE","2013-02-15","2013-02-15",1
"63","CDISCPILOT01","DS","01-701-1188",2,"14","ADVERSE EVENT","ADVERSE EVENT","DISPOSITION EVENT",7,"WEEK 6","2013-03-25","2013-03-25",39
"64","CDISCPILOT01","DS","01-701-1188",3,NA,"FINAL LAB VISIT","FINAL LAB VISIT","OTHER EVENT",7,"WEEK 6","2013-03-25T15:08","2013-03-25",39
"65","CDISCPILOT01","DS","01-701-1188",4,NA,"FINAL RETRIEVAL VISIT","FINAL RETRIEVAL VISIT","OTHER EVENT",201,"RETRIEVAL","2013-08-04","2013-08-04",171
"66","CDISCPILOT01","DS","01-701-1192",1,NA,"RANDOMIZED","RANDOMIZED","PROTOCOL MILESTONE",3,"BASELINE","2012-07-22","2012-07-22",1
"67","CDISCPILOT01","DS","01-701-1192",2,NA,"PROTOCOL COMPLETED","COMPLETED","DISPOSITION EVENT",13,"WEEK 26","2013-01-20","2013-01-20",183
"68","CDISCPILOT01","DS","01-701-1192",3,NA,"FINAL LAB VISIT","FINAL LAB VISIT","OTHER EVENT",13,"WEEK 26","2013-01-20T15:47","2013-01-20",183
"69","CDISCPILOT01","DS","01-701-1203",1,NA,"RANDOMIZED","RANDOMIZED","PROTOCOL MILESTONE",3,"BASELINE","2013-02-02","2013-02-02",1
"70","CDISCPILOT01","DS","01-701-1203",2,NA,"PROTOCOL COMPLETED","COMPLETED","DISPOSITION EVENT",13,"WEEK 26","2013-08-03","2013-08-03",183
"71","CDISCPILOT01","DS","01-701-1203",3,NA,"FINAL LAB VISIT","FINAL LAB VISIT","OTHER EVENT",13,"WEEK 26","2013-08-03T10:10","2013-08-03",183
"72","CDISCPILOT01","DS","01-701-1211",1,NA,"RANDOMIZED","RANDOMIZED","PROTOCOL MILESTONE",3,"BASELINE","2012-11-15","2012-11-15",1
"73","CDISCPILOT01","DS","01-701-1211",2,NA,"FINAL LAB VISIT","FINAL LAB VISIT","OTHER EVENT",8,"WEEK 8","2013-01-08T12:13","2013-01-08",55
"74","CDISCPILOT01","DS","01-701-1211",3,"18","DEATH","DEATH","DISPOSITION EVENT",9,"WEEK 12","2013-01-14","2013-01-14",61
"75","CDISCPILOT01","DS","01-701-1234",1,NA,"RANDOMIZED","RANDOMIZED","PROTOCOL MILESTONE",3,"BASELINE","2013-03-30","2013-03-30",1
"76","CDISCPILOT01","DS","01-701-1234",2,NA,"PROTOCOL COMPLETED","COMPLETED","DISPOSITION EVENT",13,"WEEK 26","2013-09-22","2013-09-22",177
"77","CDISCPILOT01","DS","01-701-1234",3,NA,"FINAL LAB VISIT","FINAL LAB VISIT","OTHER EVENT",13,"WEEK 26","2013-09-22T09:25","2013-09-22",177
"78","CDISCPILOT01","DS","01-701-1239",1,NA,"RANDOMIZED","RANDOMIZED","PROTOCOL MILESTONE",3,"BASELINE","2014-01-11","2014-01-11",1
"79","CDISCPILOT01","DS","01-701-1239",2,NA,"PROTOCOL COMPLETED","COMPLETED","DISPOSITION EVENT",13,"WEEK 26","2014-07-11","2014-07-11",182
"80","CDISCPILOT01","DS","01-701-1239",3,NA,"FINAL LAB VISIT","FINAL LAB VISIT","OTHER EVENT",13,"WEEK 26","2014-07-11T15:40","2014-07-11",182
"81","CDISCPILOT01","DS","01-701-1240",1,NA,"SCREEN FAILURE","SCREEN FAILURE","DISPOSITION EVENT",1,"SCREENING 1","2013-09-22","2013-09-22",NA
"82","CDISCPILOT01","DS","01-701-1275",1,NA,"RANDOMIZED","RANDOMIZED","PROTOCOL MILESTONE",3,"BASELINE","2014-02-07","2014-02-07",1
"83","CDISCPILOT01","DS","01-701-1275",2,NA,"WITHDRAW CONSENT","WITHDRAWAL BY SUBJECT","DISPOSITION EVENT",10,"WEEK 16","2014-06-14","2014-06-14",128
"84","CDISCPILOT01","DS","01-701-1275",3,NA,"FINAL LAB VISIT","FINAL LAB VISIT","OTHER EVENT",10,"WEEK 16","2014-06-14T12:35","2014-06-14",128
"85","CDISCPILOT01","DS","01-701-1287",1,NA,"RANDOMIZED","RANDOMIZED","PROTOCOL MILESTONE",3,"BASELINE","2014-01-25","2014-01-25",1
"86","CDISCPILOT01","DS","01-701-1287",2,NA,"PROTOCOL COMPLETED","COMPLETED","DISPOSITION EVENT",13,"WEEK 26","2014-07-26","2014-07-26",183
"87","CDISCPILOT01","DS","01-701-1287",3,NA,"FINAL LAB VISIT","FINAL LAB VISIT","OTHER EVENT",13,"WEEK 26","2014-07-26T13:15","2014-07-26",183
"88","CDISCPILOT01","DS","01-701-1294",1,NA,"RANDOMIZED","RANDOMIZED","PROTOCOL MILESTONE",3,"BASELINE","2013-03-24","2013-03-24",1
"89","CDISCPILOT01","DS","01-701-1294",2,"14","ADVERSE EVENT","ADVERSE EVENT","DISPOSITION EVENT",9,"WEEK 12","2013-06-14","2013-06-14",83
"90","CDISCPILOT01","DS","01-701-1294",3,NA,"FINAL LAB VISIT","FINAL LAB VISIT","OTHER EVENT",9,"WEEK 12","2013-06-14T09:47","2013-06-14",83
"91","CDISCPILOT01","DS","01-701-1294",4,NA,"FINAL RETRIEVAL VISIT","FINAL RETRIEVAL VISIT","OTHER EVENT",201,"RETRIEVAL","2013-10-08","2013-10-08",199
"92","CDISCPILOT01","DS","01-701-1302",1,NA,"RANDOMIZED","RANDOMIZED","PROTOCOL MILESTONE",3,"BASELINE","2013-08-29","2013-08-29",1
"93","CDISCPILOT01","DS","01-701-1302",2,"31","ADVERSE EVENT","ADVERSE EVENT","DISPOSITION EVENT",9,"WEEK 12","2013-11-05","2013-11-05",69
"94","CDISCPILOT01","DS","01-701-1302",3,NA,"FINAL LAB VISIT","FINAL LAB VISIT","OTHER EVENT",9,"WEEK 12","2013-11-05T13:54","2013-11-05",69
"95","CDISCPILOT01","DS","01-701-1302",4,NA,"FINAL RETRIEVAL VISIT","FINAL RETRIEVAL VISIT","OTHER EVENT",201,"RETRIEVAL","2014-02-13","2014-02-13",169
"96","CDISCPILOT01","DS","01-701-1307",1,NA,"SCREEN FAILURE","SCREEN FAILURE","DISPOSITION EVENT",1,"SCREENING 1","2013-12-08","2013-12-08",NA
"97","CDISCPILOT01","DS","01-701-1317",1,NA,"RANDOMIZED","RANDOMIZED","PROTOCOL MILESTONE",3,"BASELINE","2014-05-22","2014-05-22",1
"98","CDISCPILOT01","DS","01-701-1317",2,NA,"PROTOCOL COMPLETED","COMPLETED","DISPOSITION EVENT",13,"WEEK 26","2014-11-20","2014-11-20",183
"99","CDISCPILOT01","DS","01-701-1317",3,NA,"FINAL LAB VISIT","FINAL LAB VISIT","OTHER EVENT",13,"WEEK 26","2014-11-20T11:54","2014-11-20",183
"100","CDISCPILOT01","DS","01-701-1324",1,NA,"RANDOMIZED","RANDOMIZED","PROTOCOL MILESTONE",3,"BASELINE","2012-10-02","2012-10-02",1
"101","CDISCPILOT01","DS","01-701-1324",2,NA,"PROTOCOL COMPLETED","COMPLETED","DISPOSITION EVENT",13,"WEEK 26","2013-04-02","2013-04-02",183
"102","CDISCPILOT01","DS","01-701-1324",3,NA,"FINAL LAB VISIT","FINAL LAB VISIT","OTHER EVENT",13,"WEEK 26","2013-04-02T11:35","2013-04-02",183
"103","CDISCPILOT01","DS","01-701-1341",1,NA,"RANDOMIZED","RANDOMIZED","PROTOCOL MILESTONE",3,"BASELINE","2013-01-05","2013-01-05",1
"104","CDISCPILOT01","DS","01-701-1341",2,"14","ADVERSE EVENT","ADVERSE EVENT","DISPOSITION EVENT",5,"WEEK 4","2013-02-07","2013-02-07",34
"105","CDISCPILOT01","DS","01-701-1341",3,NA,"FINAL LAB VISIT","FINAL LAB VISIT","OTHER EVENT",5,"WEEK 4","2013-02-07T15:16","2013-02-07",34
"106","CDISCPILOT01","DS","01-701-1345",1,NA,"RANDOMIZED","RANDOMIZED","PROTOCOL MILESTONE",3,"BASELINE","2013-10-08","2013-10-08",1
"107","CDISCPILOT01","DS","01-701-1345",2,NA,"SPONSOR DECISION (STUDY OR PATIENT DISCONTINUED BY THE SPONSOR)","STUDY TERMINATED BY SPONSOR","DISPOSITION EVENT",12,"WEEK 24","2014-03-18","2014-03-18",162
"108","CDISCPILOT01","DS","01-701-1345",3,NA,"FINAL LAB VISIT","FINAL LAB VISIT","OTHER EVENT",12,"WEEK 24","2014-03-18T14:12","2014-03-18",162
"109","CDISCPILOT01","DS","01-701-1356",1,NA,"SCREEN FAILURE","SCREEN FAILURE","DISPOSITION EVENT",1,"SCREENING 1","2014-04-01","2014-04-01",NA
"110","CDISCPILOT01","DS","01-701-1360",1,NA,"RANDOMIZED","RANDOMIZED","PROTOCOL MILESTONE",3,"BASELINE","2013-07-31","2013-07-31",1
"111","CDISCPILOT01","DS","01-701-1360",2,NA,"PMD DECISION DUE TO AE'S","PHYSICIAN DECISION","DISPOSITION EVENT",4,"WEEK 2","2013-08-14","2013-08-14",15
"112","CDISCPILOT01","DS","01-701-1360",3,NA,"FINAL LAB VISIT","FINAL LAB VISIT","OTHER EVENT",4,"WEEK 2","2013-08-14T15:17","2013-08-14",15
"113","CDISCPILOT01","DS","01-701-1360",4,NA,"FINAL RETRIEVAL VISIT","FINAL RETRIEVAL VISIT","OTHER EVENT",201,"RETRIEVAL","2014-02-11","2014-02-11",196
"114","CDISCPILOT01","DS","01-701-1363",1,NA,"RANDOMIZED","RANDOMIZED","PROTOCOL MILESTONE",3,"BASELINE","2013-05-30","2013-05-30",1
"115","CDISCPILOT01","DS","01-701-1363",2,NA,"PROTOCOL COMPLETED","COMPLETED","DISPOSITION EVENT",13,"WEEK 26","2013-11-27","2013-11-27",182
"116","CDISCPILOT01","DS","01-701-1363",3,NA,"FINAL LAB VISIT","FINAL LAB VISIT","OTHER EVENT",13,"WEEK 26","2013-11-27T10:00","2013-11-27",182
"117","CDISCPILOT01","DS","01-701-1369",1,NA,"SCREEN FAILURE","SCREEN FAILURE","DISPOSITION EVENT",1,"SCREENING 1","2013-09-18","2013-09-18",NA
"118","CDISCPILOT01","DS","01-701-1383",1,NA,"RANDOMIZED","RANDOMIZED","PROTOCOL MILESTONE",3,"BASELINE","2013-02-04","2013-02-04",1
"119","CDISCPILOT01","DS","01-701-1383",2,NA,"PROTOCOL COMPLETED","COMPLETED","DISPOSITION EVENT",13,"WEEK 26","2013-08-06","2013-08-06",184
"120","CDISCPILOT01","DS","01-701-1383",3,NA,"FINAL LAB VISIT","FINAL LAB VISIT","OTHER EVENT",13,"WEEK 26","2013-08-06T12:00","2013-08-06",184
"121","CDISCPILOT01","DS","01-701-1386",1,NA,"SCREEN FAILURE","SCREEN FAILURE","DISPOSITION EVENT",1,"SCREENING 1","2013-12-28","2013-12-28",NA
"122","CDISCPILOT01","DS","01-701-1387",1,NA,"RANDOMIZED","RANDOMIZED","PROTOCOL MILESTONE",3,"BASELINE","2014-03-12","2014-03-12",1
"123","CDISCPILOT01","DS","01-701-1387",2,NA,"PROTOCOL VIOLATION","PROTOCOL VIOLATION","DISPOSITION EVENT",4,"WEEK 2","2014-03-25","2014-03-25",14
"124","CDISCPILOT01","DS","01-701-1387",3,NA,"FINAL LAB VISIT","FINAL LAB VISIT","OTHER EVENT",4,"WEEK 2","2014-03-25T10:40","2014-03-25",14
"125","CDISCPILOT01","DS","01-701-1387",4,NA,"FINAL RETRIEVAL VISIT","FINAL RETRIEVAL VISIT","OTHER EVENT",201,"RETRIEVAL","2014-08-27","2014-08-27",169
"126","CDISCPILOT01","DS","01-701-1392",1,NA,"RANDOMIZED","RANDOMIZED","PROTOCOL MILESTONE",3,"BASELINE","2012-10-28","2012-10-28",1
"127","CDISCPILOT01","DS","01-701-1392",2,NA,"PROTOCOL COMPLETED","COMPLETED","DISPOSITION EVENT",13,"WEEK 26","2013-04-28","2013-04-28",183
"128","CDISCPILOT01","DS","01-701-1392",3,NA,"FINAL LAB VISIT","FINAL LAB VISIT","OTHER EVENT",13,"WEEK 26","2013-04-28T11:30","2013-04-28",183
"129","CDISCPILOT01","DS","01-701-1411",1,NA,"SCREEN FAILURE","SCREEN FAILURE","DISPOSITION EVENT",1,"SCREENING 1","2012-11-14","2012-11-14",NA
"130","CDISCPILOT01","DS","01-701-1415",1,NA,"RANDOMIZED","RANDOMIZED","PROTOCOL MILESTONE",3,"BASELINE","2013-09-23","2013-09-23",1
"131","CDISCPILOT01","DS","01-701-1415",2,NA,"PROTOCOL COMPLETED","COMPLETED","DISPOSITION EVENT",13,"WEEK 26","2014-03-24","2014-03-24",183
"132","CDISCPILOT01","DS","01-701-1415",3,NA,"FINAL LAB VISIT","FINAL LAB VISIT","OTHER EVENT",13,"WEEK 26","2014-03-24T12:34","2014-03-24",183
"133","CDISCPILOT01","DS","01-701-1429",1,NA,"RANDOMIZED","RANDOMIZED","PROTOCOL MILESTONE",3,"BASELINE","2013-03-19","2013-03-19",1
"134","CDISCPILOT01","DS","01-701-1429",2,NA,"WITHDRAW CONSENT DUE TO COMPLIANCY ISSUE","WITHDRAWAL BY SUBJECT","DISPOSITION EVENT",7,"WEEK 6","2013-04-30","2013-04-30",43
"135","CDISCPILOT01","DS","01-701-1429",3,NA,"FINAL LAB VISIT","FINAL LAB VISIT","OTHER EVENT",7,"WEEK 6","2013-04-30T12:22","2013-04-30",43
"136","CDISCPILOT01","DS","01-701-1440",1,NA,"RANDOMIZED","RANDOMIZED","PROTOCOL MILESTONE",3,"BASELINE","2013-08-08","2013-08-08",1
"137","CDISCPILOT01","DS","01-701-1440",2,NA,"PROTOCOL COMPLETED","COMPLETED","DISPOSITION EVENT",13,"WEEK 26","2014-02-05","2014-02-05",182
"138","CDISCPILOT01","DS","01-701-1440",3,NA,"FINAL LAB VISIT","FINAL LAB VISIT","OTHER EVENT",13,"WEEK 26","2014-02-05T11:25","2014-02-05",182
"139","CDISCPILOT01","DS","01-701-1442",1,NA,"RANDOMIZED","RANDOMIZED","PROTOCOL MILESTONE",3,"BASELINE","2013-10-26","2013-10-26",1
"140","CDISCPILOT01","DS","01-701-1442",2,NA,"PROTOCOL COMPLETED","COMPLETED","DISPOSITION EVENT",13,"WEEK 26","2014-04-26","2014-04-26",183
"141","CDISCPILOT01","DS","01-701-1442",3,NA,"FINAL LAB VISIT","FINAL LAB VISIT","OTHER EVENT",13,"WEEK 26","2014-04-26T10:00","2014-04-26",183
"142","CDISCPILOT01","DS","01-701-1444",1,NA,"RANDOMIZED","RANDOMIZED","PROTOCOL MILESTONE",3,"BASELINE","2013-01-05","2013-01-05",1
"143","CDISCPILOT01","DS","01-701-1444",2,"29","ADVERSE EVENT","ADVERSE EVENT","DISPOSITION EVENT",7,"WEEK 6","2013-02-13","2013-02-13",40
"144","CDISCPILOT01","DS","01-701-1444",3,NA,"FINAL LAB VISIT","FINAL LAB VISIT","OTHER EVENT",7,"WEEK 6","2013-02-13T15:53","2013-02-13",40
"145","CDISCPILOT01","DS","01-701-1444",4,NA,"FINAL RETRIEVAL VISIT","FINAL RETRIEVAL VISIT","OTHER EVENT",201,"RETRIEVAL","2013-06-20","2013-06-20",167
"146","CDISCPILOT01","DS","01-702-1082",1,NA,"RANDOMIZED","RANDOMIZED","PROTOCOL MILESTONE",3,"BASELINE","2013-07-26","2013-07-26",1
"147","CDISCPILOT01","DS","01-702-1082",2,NA,"PT FINDS PATCHES""INCONVENIENT & ITCHY;PT PREFERS'PILLS'""","WITHDRAWAL BY SUBJECT","DISPOSITION EVENT",9,"WEEK 12","2013-11-17","2013-11-17",115
"148","CDISCPILOT01","DS","01-702-1082",3,NA,"FINAL LAB VISIT","FINAL LAB VISIT","OTHER EVENT",9,"WEEK 12","2013-11-17T12:20","2013-11-17",115
"149","CDISCPILOT01","DS","01-703-1042",1,NA,"RANDOMIZED","RANDOMIZED","PROTOCOL MILESTONE",3,"BASELINE","2013-03-02","2013-03-02",1
"150","CDISCPILOT01","DS","01-703-1042",2,NA,"PROTOCOL COMPLETED","COMPLETED","DISPOSITION EVENT",13,"WEEK 26","2013-08-31","2013-08-31",183
"151","CDISCPILOT01","DS","01-703-1042",3,NA,"FINAL LAB VISIT","FINAL LAB VISIT","OTHER EVENT",13,"WEEK 26","2013-08-31T11:00","2013-08-31",183
"152","CDISCPILOT01","DS","01-703-1076",1,NA,"RANDOMIZED","RANDOMIZED","PROTOCOL MILESTONE",3,"BASELINE","2013-10-25","2013-10-25",1
"153","CDISCPILOT01","DS","01-703-1076",2," 8","ADVERSE EVENT","ADVERSE EVENT","DISPOSITION EVENT",9,"WEEK 12","2013-12-24","2013-12-24",61
"154","CDISCPILOT01","DS","01-703-1076",3,NA,"FINAL LAB VISIT","FINAL LAB VISIT","OTHER EVENT",9,"WEEK 12","2013-12-24T13:05","2013-12-24",61
"155","CDISCPILOT01","DS","01-703-1086",1,NA,"RANDOMIZED","RANDOMIZED","PROTOCOL MILESTONE",3,"BASELINE","2012-09-02","2012-09-02",1
"156","CDISCPILOT01","DS","01-703-1086",2," 1","ADVERSE EVENT","ADVERSE EVENT","DISPOSITION EVENT",10,"WEEK 16","2012-12-24","2012-12-24",114
"157","CDISCPILOT01","DS","01-703-1086",3,NA,"FINAL LAB VISIT","FINAL LAB VISIT","OTHER EVENT",10,"WEEK 16","2012-12-24T09:30","2012-12-24",114
"158","CDISCPILOT01","DS","01-703-1086",4,NA,"FINAL RETRIEVAL VISIT","FINAL RETRIEVAL VISIT","OTHER EVENT",201,"RETRIEVAL","2013-03-26","2013-03-26",206
"159","CDISCPILOT01","DS","01-703-1096",1,NA,"RANDOMIZED","RANDOMIZED","PROTOCOL MILESTONE",3,"BASELINE","2013-01-25","2013-01-25",1
"160","CDISCPILOT01","DS","01-703-1096",2,NA,"FINAL LAB VISIT","FINAL LAB VISIT","OTHER EVENT",5,"WEEK 4","2013-02-23T17:10","2013-02-23",30
"161","CDISCPILOT01","DS","01-703-1096",3,NA,"UNABLE TO CONTACT PATIENT (LOST TO FOLLOW-UP)","LOST TO FOLLOW-UP","DISPOSITION EVENT",7,"WEEK 6","2013-03-29","2013-03-29",64
"162","CDISCPILOT01","DS","01-703-1100",1,NA,"RANDOMIZED","RANDOMIZED","PROTOCOL MILESTONE",3,"BASELINE","2013-03-13","2013-03-13",1
"163","CDISCPILOT01","DS","01-703-1100",2,NA,"PROTOCOL COMPLETED","COMPLETED","DISPOSITION EVENT",13,"WEEK 26","2013-09-14","2013-09-14",186
"164","CDISCPILOT01","DS","01-703-1100",3,NA,"FINAL LAB VISIT","FINAL LAB VISIT","OTHER EVENT",13,"WEEK 26","2013-09-14T15:00","2013-09-14",186
"165","CDISCPILOT01","DS","01-703-1119",1,NA,"RANDOMIZED","RANDOMIZED","PROTOCOL MILESTONE",3,"BASELINE","2013-02-20","2013-02-20",1
"166","CDISCPILOT01","DS","01-703-1119",2,"10","ADVERSE EVENT","ADVERSE EVENT","DISPOSITION EVENT",10,"WEEK 16","2013-06-13","2013-06-13",114
"167","CDISCPILOT01","DS","01-703-1119",3,NA,"FINAL LAB VISIT","FINAL LAB VISIT","OTHER EVENT",10,"WEEK 16","2013-06-13T12:15","2013-06-13",114
"168","CDISCPILOT01","DS","01-703-1119",4,NA,"FINAL RETRIEVAL VISIT","FINAL RETRIEVAL VISIT","OTHER EVENT",201,"RETRIEVAL","2013-08-24","2013-08-24",186
"169","CDISCPILOT01","DS","01-703-1175",1,NA,"RANDOMIZED","RANDOMIZED","PROTOCOL MILESTONE",3,"BASELINE","2013-12-20","2013-12-20",1
"170","CDISCPILOT01","DS","01-703-1175",2,NA,"PROTOCOL ENTRY CRITERIA NOT MET","PROTOCOL VIOLATION","DISPOSITION EVENT",4,"WEEK 2","2013-12-31","2013-12-31",12
"171","CDISCPILOT01","DS","01-703-1175",3,NA,"FINAL LAB VISIT","FINAL LAB VISIT","OTHER EVENT",4,"WEEK 2","2013-12-31T13:15","2013-12-31",12
"172","CDISCPILOT01","DS","01-703-1182",1,NA,"RANDOMIZED","RANDOMIZED","PROTOCOL MILESTONE",3,"BASELINE","2013-10-17","2013-10-17",1
"173","CDISCPILOT01","DS","01-703-1182",2," 9","ADVERSE EVENT","ADVERSE EVENT","DISPOSITION EVENT",8,"WEEK 8","2013-12-12","2013-12-12",57
"174","CDISCPILOT01","DS","01-703-1182",3,NA,"FINAL LAB VISIT","FINAL LAB VISIT","OTHER EVENT",8,"WEEK 8","2013-12-12T13:10","2013-12-12",57
"175","CDISCPILOT01","DS","01-703-1197",1,NA,"FINAL LAB VISIT","FINAL LAB VISIT","OTHER EVENT",1.1,"UNSCHEDULED 1.1","2013-06-01T10:00","2013-06-01",-15
"176","CDISCPILOT01","DS","01-703-1197",2,NA,"RANDOMIZED","RANDOMIZED","PROTOCOL MILESTONE",3,"BASELINE","2013-06-16","2013-06-16",1
"177","CDISCPILOT01","DS","01-703-1197",3,NA,"CAREGIVER DECISION:  SEE COMMENT PAGE","WITHDRAWAL BY SUBJECT","DISPOSITION EVENT",4,"WEEK 2","2013-07-22","2013-07-22",37
"178","CDISCPILOT01","DS","01-703-1210",1,NA,"RANDOMIZED","RANDOMIZED","PROTOCOL MILESTONE",3,"BASELINE","2013-03-16","2013-03-16",1
"179","CDISCPILOT01","DS","01-703-1210",2,NA,"PROTOCOL COMPLETED","COMPLETED","DISPOSITION EVENT",13,"WEEK 26","2013-09-06","2013-09-06",175
"180","CDISCPILOT01","DS","01-703-1210",3,NA,"FINAL LAB VISIT","FINAL LAB VISIT","OTHER EVENT",13,"WEEK 26","2013-09-06T13:30","2013-09-06",175
"181","CDISCPILOT01","DS","01-703-1258",1,NA,"RANDOMIZED","RANDOMIZED","PROTOCOL MILESTONE",3,"BASELINE","2012-07-20","2012-07-20",1
"182","CDISCPILOT01","DS","01-703-1258",2,NA,"FINAL LAB VISIT","FINAL LAB VISIT","OTHER EVENT",12,"WEEK 24","2012-12-31T11:30","2012-12-31",165
"183","CDISCPILOT01","DS","01-703-1258",3,"13","ADVERSE EVENT","ADVERSE EVENT","DISPOSITION EVENT",13,"WEEK 26","2013-01-21","2013-01-21",186
"184","CDISCPILOT01","DS","01-703-1279",1,NA,"FINAL LAB VISIT","FINAL LAB VISIT","OTHER EVENT",1,"SCREENING 1","2013-04-27T11:00","2013-04-27",-16
"185","CDISCPILOT01","DS","01-703-1279",2,NA,"RANDOMIZED","RANDOMIZED","PROTOCOL MILESTONE",3,"BASELINE","2013-05-13","2013-05-13",1
"186","CDISCPILOT01","DS","01-703-1279",3,NA,"CAREGIVER BECAME ILL","WITHDRAWAL BY SUBJECT","DISPOSITION EVENT",4,"WEEK 2","2013-06-22","2013-06-22",41
"187","CDISCPILOT01","DS","01-703-1295",1,NA,"RANDOMIZED","RANDOMIZED","PROTOCOL MILESTONE",3,"BASELINE","2013-11-21","2013-11-21",1
"188","CDISCPILOT01","DS","01-703-1295",2,NA,"FAMILY WISHES TO DISCONTINUE","WITHDRAWAL BY SUBJECT","DISPOSITION EVENT",11,"WEEK 20","2014-05-19","2014-05-19",180
"189","CDISCPILOT01","DS","01-703-1295",3,NA,"FINAL LAB VISIT","FINAL LAB VISIT","OTHER EVENT",11,"WEEK 20","2014-05-19T14:45","2014-05-19",180
"190","CDISCPILOT01","DS","01-703-1299",1,NA,"RANDOMIZED","RANDOMIZED","PROTOCOL MILESTONE",3,"BASELINE","2012-09-12","2012-09-12",1
"191","CDISCPILOT01","DS","01-703-1299",2,NA,"PROTOCOL COMPLETED","COMPLETED","DISPOSITION EVENT",13,"WEEK 26","2013-03-13","2013-03-13",183
"192","CDISCPILOT01","DS","01-703-1299",3,NA,"FINAL LAB VISIT","FINAL LAB VISIT","OTHER EVENT",13,"WEEK 26","2013-03-13T11:40","2013-03-13",183
"193","CDISCPILOT01","DS","01-703-1335",1,NA,"RANDOMIZED","RANDOMIZED","PROTOCOL MILESTONE",3,"BASELINE","2014-03-17","2014-03-17",1
"194","CDISCPILOT01","DS","01-703-1335",2,NA,"PROTOCOL VIOLATION","PROTOCOL VIOLATION","DISPOSITION EVENT",7,"WEEK 6","2014-05-24","2014-05-24",69
"195","CDISCPILOT01","DS","01-703-1335",3,NA,"FINAL LAB VISIT","FINAL LAB VISIT","OTHER EVENT",7,"WEEK 6","2014-05-24T12:15","2014-05-24",69
"196","CDISCPILOT01","DS","01-703-1379",1,NA,"RANDOMIZED","RANDOMIZED","PROTOCOL MILESTONE",3,"BASELINE","2013-09-22","2013-09-22",1
"197","CDISCPILOT01","DS","01-703-1379",2,NA,"PROTOCOL COMPLETED","COMPLETED","DISPOSITION EVENT",13,"WEEK 26","2014-03-21","2014-03-21",181
"198","CDISCPILOT01","DS","01-703-1379",3,NA,"FINAL LAB VISIT","FINAL LAB VISIT","OTHER EVENT",13,"WEEK 26","2014-03-21T10:55","2014-03-21",181
"199","CDISCPILOT01","DS","01-703-1396",1,NA,"SCREEN FAILURE","SCREEN FAILURE","DISPOSITION EVENT",1,"SCREENING 1","2014-02-09","2014-02-09",NA
"200","CDISCPILOT01","DS","01-703-1403",1,NA,"RANDOMIZED","RANDOMIZED","PROTOCOL MILESTONE",3,"BASELINE","2012-12-12","2012-12-12",1
"201","CDISCPILOT01","DS","01-703-1403",2," 5","ADVERSE EVENT","ADVERSE EVENT","DISPOSITION EVENT",4,"WEEK 2","2012-12-19","2012-12-19",8
"202","CDISCPILOT01","DS","01-703-1403",3,NA,"FINAL LAB VISIT","FINAL LAB VISIT","OTHER EVENT",4,"WEEK 2","2012-12-19T10:15","2012-12-19",8
"203","CDISCPILOT01","DS","01-703-1439",1,NA,"RANDOMIZED","RANDOMIZED","PROTOCOL MILESTONE",3,"BASELINE","2014-03-12","2014-03-12",1
"204","CDISCPILOT01","DS","01-703-1439",2,NA,"PROTOCOL COMPLETED","COMPLETED","DISPOSITION EVENT",13,"WEEK 26","2014-09-11","2014-09-11",184
"205","CDISCPILOT01","DS","01-703-1439",3,NA,"FINAL LAB VISIT","FINAL LAB VISIT","OTHER EVENT",13,"WEEK 26","2014-09-11T12:40","2014-09-11",184
"206","CDISCPILOT01","DS","01-704-1008",1,NA,"RANDOMIZED","RANDOMIZED","PROTOCOL MILESTONE",3,"BASELINE","2013-01-13","2013-01-13",1
"207","CDISCPILOT01","DS","01-704-1008",2," 9","ADVERSE EVENT","ADVERSE EVENT","DISPOSITION EVENT",7,"WEEK 6","2013-02-25","2013-02-25",44
"208","CDISCPILOT01","DS","01-704-1008",3,NA,"FINAL LAB VISIT","FINAL LAB VISIT","OTHER EVENT",7,"WEEK 6","2013-02-25T11:00","2013-02-25",44
"209","CDISCPILOT01","DS","01-704-1009",1,NA,"RANDOMIZED","RANDOMIZED","PROTOCOL MILESTONE",3,"BASELINE","2013-08-27","2013-08-27",1
"210","CDISCPILOT01","DS","01-704-1009",2,NA,"FINAL LAB VISIT","FINAL LAB VISIT","OTHER EVENT",4,"WEEK 2","2013-09-14T15:00","2013-09-14",19
"211","CDISCPILOT01","DS","01-704-1009",3,NA,"TOO TIME CONSUMING;PT REFUSED FUTURE HOLTERS","WITHDRAWAL BY SUBJECT","DISPOSITION EVENT",5,"WEEK 4","2013-10-02","2013-10-02",37
"212","CDISCPILOT01","DS","01-704-1010",1,NA,"RANDOMIZED","RANDOMIZED","PROTOCOL MILESTONE",3,"BASELINE","2014-02-21","2014-02-21",1
"213","CDISCPILOT01","DS","01-704-1010",2,NA,"PATIENT IS MOVING","WITHDRAWAL BY SUBJECT","DISPOSITION EVENT",11,"WEEK 20","2014-07-09","2014-07-09",139
"214","CDISCPILOT01","DS","01-704-1010",3,NA,"FINAL LAB VISIT","FINAL LAB VISIT","OTHER EVENT",11,"WEEK 20","2014-07-09T11:00","2014-07-09",139
"215","CDISCPILOT01","DS","01-704-1017",1,NA,"RANDOMIZED","RANDOMIZED","PROTOCOL MILESTONE",3,"BASELINE","2013-10-06","2013-10-06",1
"216","CDISCPILOT01","DS","01-704-1017",2,NA,"FINAL LAB VISIT","FINAL LAB VISIT","OTHER EVENT",5,"WEEK 4","2013-11-01T10:45","2013-11-01",27
"217","CDISCPILOT01","DS","01-704-1017",3,"14","ADVERSE EVENT","ADVERSE EVENT","DISPOSITION EVENT",7,"WEEK 6","2013-11-24","2013-11-24",50
"218","CDISCPILOT01","DS","01-704-1025",1,NA,"RANDOMIZED","RANDOMIZED","PROTOCOL MILESTONE",3,"BASELINE","2013-09-27","2013-09-27",1
"219","CDISCPILOT01","DS","01-704-1025",2," 8","ADVERSE EVENT","ADVERSE EVENT","DISPOSITION EVENT",6,"AMBUL ECG REMOVAL","2013-11-29","2013-11-29",64
"220","CDISCPILOT01","DS","01-704-1025",3,NA,"FINAL LAB VISIT","FINAL LAB VISIT","OTHER EVENT",6,"AMBUL ECG REMOVAL","2013-11-29T12:00","2013-11-29",64
"221","CDISCPILOT01","DS","01-704-1065",1,NA,"RANDOMIZED","RANDOMIZED","PROTOCOL MILESTONE",3,"BASELINE","2013-10-24","2013-10-24",1
"222","CDISCPILOT01","DS","01-704-1065",2,"14","ADVERSE EVENT","ADVERSE EVENT","DISPOSITION EVENT",9,"WEEK 12","2013-12-24","2013-12-24",62
"223","CDISCPILOT01","DS","01-704-1065",3,NA,"FINAL LAB VISIT","FINAL LAB VISIT","OTHER EVENT",9,"WEEK 12","2013-12-24T11:45","2013-12-24",62
"224","CDISCPILOT01","DS","01-704-1074",1,NA,"RANDOMIZED","RANDOMIZED","PROTOCOL MILESTONE",3,"BASELINE","2014-01-22","2014-01-22",1
"225","CDISCPILOT01","DS","01-704-1074",2,"11","ADVERSE EVENT","ADVERSE EVENT","DISPOSITION EVENT",8,"WEEK 8","2014-03-31","2014-03-31",69
"226","CDISCPILOT01","DS","01-704-1074",3,NA,"FINAL LAB VISIT","FINAL LAB VISIT","OTHER EVENT",8,"WEEK 8","2014-03-31T10:30","2014-03-31",69
"227","CDISCPILOT01","DS","01-704-1093",1,NA,"RANDOMIZED","RANDOMIZED","PROTOCOL MILESTONE",3,"BASELINE","2013-03-15","2013-03-15",1
"228","CDISCPILOT01","DS","01-704-1093",2," 8","ADVERSE EVENT","ADVERSE EVENT","DISPOSITION EVENT",10,"WEEK 16","2013-06-20","2013-06-20",98
"229","CDISCPILOT01","DS","01-704-1093",3,NA,"FINAL LAB VISIT","FINAL LAB VISIT","OTHER EVENT",10,"WEEK 16","2013-06-20T11:10","2013-06-20",98
"230","CDISCPILOT01","DS","01-704-1093",4,NA,"FINAL RETRIEVAL VISIT","FINAL RETRIEVAL VISIT","OTHER EVENT",201,"RETRIEVAL","2013-12-25","2013-12-25",286
"231","CDISCPILOT01","DS","01-704-1114",1,NA,"RANDOMIZED","RANDOMIZED","PROTOCOL MILESTONE",3,"BASELINE","2013-01-23","2013-01-23",1
"232","CDISCPILOT01","DS","01-704-1114",2,NA,"LEAVING AREA FOR 5 MONTHS","WITHDRAWAL BY SUBJECT","DISPOSITION EVENT",12,"WEEK 24","2013-07-08","2013-07-08",167
"233","CDISCPILOT01","DS","01-704-1114",3,NA,"FINAL LAB VISIT","FINAL LAB VISIT","OTHER EVENT",12,"WEEK 24","2013-07-08T09:56","2013-07-08",167
"234","CDISCPILOT01","DS","01-704-1120",1,NA,"RANDOMIZED","RANDOMIZED","PROTOCOL MILESTONE",3,"BASELINE","2013-12-02","2013-12-02",1
"235","CDISCPILOT01","DS","01-704-1120",2," 3","ADVERSE EVENT","ADVERSE EVENT","DISPOSITION EVENT",9,"WEEK 12","2014-02-03","2014-02-03",64
"236","CDISCPILOT01","DS","01-704-1120",3,NA,"FINAL LAB VISIT","FINAL LAB VISIT","OTHER EVENT",9,"WEEK 12","2014-02-03T11:50","2014-02-03",64
"237","CDISCPILOT01","DS","01-704-1127",1,NA,"RANDOMIZED","RANDOMIZED","PROTOCOL MILESTONE",3,"BASELINE","2013-10-02","2013-10-02",1
"238","CDISCPILOT01","DS","01-704-1127",2,NA,"PROTOCOL COMPLETED","COMPLETED","DISPOSITION EVENT",13,"WEEK 26","2014-03-31","2014-03-31",181
"239","CDISCPILOT01","DS","01-704-1127",3,NA,"FINAL LAB VISIT","FINAL LAB VISIT","OTHER EVENT",13,"WEEK 26","2014-03-31T11:30","2014-03-31",181
"240","CDISCPILOT01","DS","01-704-1135",1,NA,"RANDOMIZED","RANDOMIZED","PROTOCOL MILESTONE",3,"BASELINE","2013-10-31","2013-10-31",1
"241","CDISCPILOT01","DS","01-704-1135",2,NA,"PROTOCOL COMPLETED","COMPLETED","DISPOSITION EVENT",13,"WEEK 26","2014-05-16","2014-05-16",198
"242","CDISCPILOT01","DS","01-704-1135",3,NA,"FINAL LAB VISIT","FINAL LAB VISIT","OTHER EVENT",13,"WEEK 26","2014-05-16T09:45","2014-05-16",198
"243","CDISCPILOT01","DS","01-704-1164",1,NA,"RANDOMIZED","RANDOMIZED","PROTOCOL MILESTONE",3,"BASELINE","2012-09-19","2012-09-19",1
"244","CDISCPILOT01","DS","01-704-1164",2,NA,"PROTOCOL COMPLETED","COMPLETED","DISPOSITION EVENT",13,"WEEK 26","2013-04-04","2013-04-04",198
"245","CDISCPILOT01","DS","01-704-1164",3,NA,"FINAL LAB VISIT","FINAL LAB VISIT","OTHER EVENT",13,"WEEK 26","2013-04-04","2013-04-04",198
"246","CDISCPILOT01","DS","01-704-1218",1,NA,"RANDOMIZED","RANDOMIZED","PROTOCOL MILESTONE",3,"BASELINE","2012-11-19","2012-11-19",1
"247","CDISCPILOT01","DS","01-704-1218",2,NA,"PROTOCOL COMPLETED","COMPLETED","DISPOSITION EVENT",13,"WEEK 26","2013-05-27","2013-05-27",190
"248","CDISCPILOT01","DS","01-704-1218",3,NA,"FINAL LAB VISIT","FINAL LAB VISIT","OTHER EVENT",13,"WEEK 26","2013-05-27T11:20","2013-05-27",190
"249","CDISCPILOT01","DS","01-704-1233",1,NA,"RANDOMIZED","RANDOMIZED","PROTOCOL MILESTONE",3,"BASELINE","2013-03-21","2013-03-21",1
"250","CDISCPILOT01","DS","01-704-1233",2,NA,"FINAL LAB VISIT","FINAL LAB VISIT","OTHER EVENT",10,"WEEK 16","2013-07-11T11:30","2013-07-11",113
"251","CDISCPILOT01","DS","01-704-1233",3,NA,"WITHDREW CONSENT","WITHDRAWAL BY SUBJECT","DISPOSITION EVENT",11,"WEEK 20","2013-07-14","2013-07-14",116
"252","CDISCPILOT01","DS","01-704-1241",1,NA,"RANDOMIZED","RANDOMIZED","PROTOCOL MILESTONE",3,"BASELINE","2013-08-25","2013-08-25",1
"253","CDISCPILOT01","DS","01-704-1241",2," 6","ADVERSE EVENT","ADVERSE EVENT","DISPOSITION EVENT",8,"WEEK 8","2013-10-31","2013-10-31",68
"254","CDISCPILOT01","DS","01-704-1241",3,NA,"FINAL LAB VISIT","FINAL LAB VISIT","OTHER EVENT",8,"WEEK 8","2013-10-31T09:15","2013-10-31",68
"255","CDISCPILOT01","DS","01-704-1260",1,NA,"RANDOMIZED","RANDOMIZED","PROTOCOL MILESTONE",3,"BASELINE","2012-08-30","2012-08-30",1
"256","CDISCPILOT01","DS","01-704-1260",2,NA,"FINAL LAB VISIT","FINAL LAB VISIT","OTHER EVENT",8,"WEEK 8","2012-10-24T15:45","2012-10-24",56
"257","CDISCPILOT01","DS","01-704-1260",3,NA,"TOO MANY VISITS","WITHDRAWAL BY SUBJECT","DISPOSITION EVENT",9,"WEEK 12","2013-01-18","2013-01-18",142
"258","CDISCPILOT01","DS","01-704-1266",1,NA,"RANDOMIZED","RANDOMIZED","PROTOCOL MILESTONE",3,"BASELINE","2013-10-13","2013-10-13",1
"259","CDISCPILOT01","DS","01-704-1266",2,"16","ADVERSE EVENT","ADVERSE EVENT","DISPOSITION EVENT",8,"WEEK 8","2013-12-06","2013-12-06",55
"260","CDISCPILOT01","DS","01-704-1266",3,NA,"FINAL LAB VISIT","FINAL LAB VISIT","OTHER EVENT",8,"WEEK 8","2013-12-06T13:15","2013-12-06",55
"261","CDISCPILOT01","DS","01-704-1323",1,NA,"RANDOMIZED","RANDOMIZED","PROTOCOL MILESTONE",3,"BASELINE","2013-07-08","2013-07-08",1
"262","CDISCPILOT01","DS","01-704-1323",2,NA,"FINAL LAB VISIT","FINAL LAB VISIT","OTHER EVENT",5,"WEEK 4","2013-08-04T13:45","2013-08-04",28
"263","CDISCPILOT01","DS","01-704-1323",3,"12","ADVERSE EVENT","ADVERSE EVENT","DISPOSITION EVENT",7,"WEEK 6","2013-08-08","2013-08-08",32
"264","CDISCPILOT01","DS","01-704-1325",1,NA,"RANDOMIZED","RANDOMIZED","PROTOCOL MILESTONE",3,"BASELINE","2014-04-23","2014-04-23",1
"265","CDISCPILOT01","DS","01-704-1325",2,NA,"PROTOCOL VIOLATION","PROTOCOL VIOLATION","DISPOSITION EVENT",10,"WEEK 16","2014-08-06","2014-08-06",106
"266","CDISCPILOT01","DS","01-704-1325",3,NA,"FINAL LAB VISIT","FINAL LAB VISIT","OTHER EVENT",10,"WEEK 16","2014-08-06T13:30","2014-08-06",106
"267","CDISCPILOT01","DS","01-704-1332",1,NA,"RANDOMIZED","RANDOMIZED","PROTOCOL MILESTONE",3,"BASELINE","2013-12-09","2013-12-09",1
"268","CDISCPILOT01","DS","01-704-1332",2," 6","ADVERSE EVENT","ADVERSE EVENT","DISPOSITION EVENT",9,"WEEK 12","2014-02-16","2014-02-16",70
"269","CDISCPILOT01","DS","01-704-1332",3,NA,"FINAL LAB VISIT","FINAL LAB VISIT","OTHER EVENT",9,"WEEK 12","2014-02-16T14:30","2014-02-16",70
"270","CDISCPILOT01","DS","01-704-1351",1,NA,"RANDOMIZED","RANDOMIZED","PROTOCOL MILESTONE",3,"BASELINE","2013-10-12","2013-10-12",1
"271","CDISCPILOT01","DS","01-704-1351",2,NA,"PROTOCOL COMPLETED","COMPLETED","DISPOSITION EVENT",13,"WEEK 26","2014-04-18","2014-04-18",189
"272","CDISCPILOT01","DS","01-704-1351",3,NA,"FINAL LAB VISIT","FINAL LAB VISIT","OTHER EVENT",13,"WEEK 26","2014-04-18T10:30","2014-04-18",189
"273","CDISCPILOT01","DS","01-704-1388",1,NA,"RANDOMIZED","RANDOMIZED","PROTOCOL MILESTONE",3,"BASELINE","2012-12-07","2012-12-07",1
"274","CDISCPILOT01","DS","01-704-1388",2,NA,"PROTOCOL COMPLETED","COMPLETED","DISPOSITION EVENT",13,"WEEK 26","2013-06-19","2013-06-19",195
"275","CDISCPILOT01","DS","01-704-1388",3,NA,"FINAL LAB VISIT","FINAL LAB VISIT","OTHER EVENT",13,"WEEK 26","2013-06-19T12:30","2013-06-19",195
"276","CDISCPILOT01","DS","01-704-1435",1,NA,"RANDOMIZED","RANDOMIZED","PROTOCOL MILESTONE",3,"BASELINE","2012-11-17","2012-11-17",1
"277","CDISCPILOT01","DS","01-704-1435",2,NA,"WITHDREW CONSENT","WITHDRAWAL BY SUBJECT","DISPOSITION EVENT",8,"WEEK 8","2013-01-12","2013-01-12",57
"278","CDISCPILOT01","DS","01-704-1435",3,NA,"FINAL LAB VISIT","FINAL LAB VISIT","OTHER EVENT",8,"WEEK 8","2013-01-12T12:00","2013-01-12",57
"279","CDISCPILOT01","DS","01-704-1445",1,NA,"RANDOMIZED","RANDOMIZED","PROTOCOL MILESTONE",3,"BASELINE","2014-05-11","2014-05-11",1
"280","CDISCPILOT01","DS","01-704-1445",2,NA,"FINAL LAB VISIT","FINAL LAB VISIT","OTHER EVENT",11,"WEEK 20","2014-10-01T09:30","2014-10-01",144
"281","CDISCPILOT01","DS","01-704-1445",3," 8","DEATH","DEATH","DISPOSITION EVENT",12,"WEEK 24","2014-11-01","2014-11-01",175
"282","CDISCPILOT01","DS","01-705-1011",1,NA,"SCREEN FAILURE","SCREEN FAILURE","DISPOSITION EVENT",1,"SCREENING 1","2013-09-01","2013-09-01",NA
"283","CDISCPILOT01","DS","01-705-1018",1,NA,"FINAL LAB VISIT","FINAL LAB VISIT","OTHER EVENT",1,"SCREENING 1","2013-06-30T10:00","2013-06-30",-5
"284","CDISCPILOT01","DS","01-705-1018",2,NA,"RANDOMIZED","RANDOMIZED","PROTOCOL MILESTONE",3,"BASELINE","2013-07-05","2013-07-05",1
"285","CDISCPILOT01","DS","01-705-1018",3,NA,"PATIENT WITHDREW CONSENT","WITHDRAWAL BY SUBJECT","DISPOSITION EVENT",4,"WEEK 2","2013-07-12","2013-07-12",8
"286","CDISCPILOT01","DS","01-705-1031",1,NA,"RANDOMIZED","RANDOMIZED","PROTOCOL MILESTONE",3,"BASELINE","2013-11-27","2013-11-27",1
"287","CDISCPILOT01","DS","01-705-1031",2,NA,"UNABLE TO CONTACT PATIENT (LOST TO FOLLOW-UP)","LOST TO FOLLOW-UP","DISPOSITION EVENT",12,"WEEK 24","2014-05-11","2014-05-11",166
"288","CDISCPILOT01","DS","01-705-1031",3,NA,"FINAL LAB VISIT","FINAL LAB VISIT","OTHER EVENT",12,"WEEK 24","2014-05-11T09:55","2014-05-11",166
"289","CDISCPILOT01","DS","01-705-1058",1,NA,"SCREEN FAILURE","SCREEN FAILURE","DISPOSITION EVENT",1,"SCREENING 1","2013-12-02","2013-12-02",NA
"290","CDISCPILOT01","DS","01-705-1059",1,NA,"RANDOMIZED","RANDOMIZED","PROTOCOL MILESTONE",3,"BASELINE","2013-08-05","2013-08-05",1
"291","CDISCPILOT01","DS","01-705-1059",2," 3","ADVERSE EVENT","ADVERSE EVENT","DISPOSITION EVENT",10,"WEEK 16","2013-12-05","2013-12-05",123
"292","CDISCPILOT01","DS","01-705-1059",3,NA,"FINAL LAB VISIT","FINAL LAB VISIT","OTHER EVENT",10,"WEEK 16","2013-12-05T09:55","2013-12-05",123
"293","CDISCPILOT01","DS","01-705-1059",4,NA,"FINAL RETRIEVAL VISIT","FINAL RETRIEVAL VISIT","OTHER EVENT",201,"RETRIEVAL","2014-02-06","2014-02-06",186
"294","CDISCPILOT01","DS","01-705-1112",1,NA,"SCREEN FAILURE","SCREEN FAILURE","DISPOSITION EVENT",1,"SCREENING 1","2014-02-23","2014-02-23",NA
"295","CDISCPILOT01","DS","01-705-1186",1,NA,"RANDOMIZED","RANDOMIZED","PROTOCOL MILESTONE",3,"BASELINE","2014-01-08","2014-01-08",1
"296","CDISCPILOT01","DS","01-705-1186",2,NA,"HYPERBILIRUBINEMIA","PHYSICIAN DECISION","DISPOSITION EVENT",5,"WEEK 4","2014-02-07","2014-02-07",31
"297","CDISCPILOT01","DS","01-705-1186",3,NA,"FINAL LAB VISIT","FINAL LAB VISIT","OTHER EVENT",5.1,"UNSCHEDULED 5.1","2014-02-07T15:20","2014-02-07",31
"298","CDISCPILOT01","DS","01-705-1199",1,NA,"RANDOMIZED","RANDOMIZED","PROTOCOL MILESTONE",3,"BASELINE","2013-09-16","2013-09-16",1
"299","CDISCPILOT01","DS","01-705-1199",2," 7","ADVERSE EVENT","ADVERSE EVENT","DISPOSITION EVENT",4,"WEEK 2","2013-09-29","2013-09-29",14
"300","CDISCPILOT01","DS","01-705-1199",3,NA,"FINAL LAB VISIT","FINAL LAB VISIT","OTHER EVENT",4,"WEEK 2","2013-09-29T10:30","2013-09-29",14
"301","CDISCPILOT01","DS","01-705-1243",1,NA,"SCREEN FAILURE","SCREEN FAILURE","DISPOSITION EVENT",1,"SCREENING 1","2013-02-26","2013-02-26",NA
"302","CDISCPILOT01","DS","01-705-1280",1,NA,"RANDOMIZED","RANDOMIZED","PROTOCOL MILESTONE",3,"BASELINE","2014-01-17","2014-01-17",1
"303","CDISCPILOT01","DS","01-705-1280",2,NA,"FINAL LAB VISIT","FINAL LAB VISIT","OTHER EVENT",13,"WEEK 26","2014-07-24T15:30","2014-07-24",189
"304","CDISCPILOT01","DS","01-705-1280",3,NA,"PROTOCOL COMPLETED","COMPLETED","DISPOSITION EVENT",13,"WEEK 26","2014-07-25","2014-07-25",190
"305","CDISCPILOT01","DS","01-705-1281",1,NA,"RANDOMIZED","RANDOMIZED","PROTOCOL MILESTONE",3,"BASELINE","2013-11-28","2013-11-28",1
"306","CDISCPILOT01","DS","01-705-1281",2," 5","ADVERSE EVENT","ADVERSE EVENT","DISPOSITION EVENT",10,"WEEK 16","2014-03-17","2014-03-17",110
"307","CDISCPILOT01","DS","01-705-1281",3,NA,"FINAL LAB VISIT","FINAL LAB VISIT","OTHER EVENT",10,"WEEK 16","2014-03-17T09:50","2014-03-17",110
"308","CDISCPILOT01","DS","01-705-1282",1,NA,"RANDOMIZED","RANDOMIZED","PROTOCOL MILESTONE",3,"BASELINE","2012-12-26","2012-12-26",1
"309","CDISCPILOT01","DS","01-705-1282",2,NA,"PROTOCOL COMPLETED","COMPLETED","DISPOSITION EVENT",13,"WEEK 26","2013-06-24","2013-06-24",181
"310","CDISCPILOT01","DS","01-705-1282",3,NA,"FINAL LAB VISIT","FINAL LAB VISIT","OTHER EVENT",13,"WEEK 26","2013-06-24T15:25","2013-06-24",181
"311","CDISCPILOT01","DS","01-705-1292",1,NA,"RANDOMIZED","RANDOMIZED","PROTOCOL MILESTONE",3,"BASELINE","2013-10-14","2013-10-14",1
"312","CDISCPILOT01","DS","01-705-1292",2,NA,"PROTOCOL COMPLETED","COMPLETED","DISPOSITION EVENT",13,"WEEK 26","2014-05-14","2014-05-14",213
"313","CDISCPILOT01","DS","01-705-1292",3,NA,"FINAL LAB VISIT","FINAL LAB VISIT","OTHER EVENT",13,"WEEK 26","2014-05-14T13:33","2014-05-14",213
"314","CDISCPILOT01","DS","01-705-1303",1,NA,"RANDOMIZED","RANDOMIZED","PROTOCOL MILESTONE",3,"BASELINE","2013-12-16","2013-12-16",1
"315","CDISCPILOT01","DS","01-705-1303",2,NA,"FINAL LAB VISIT","FINAL LAB VISIT","OTHER EVENT",10,"WEEK 16","2014-04-07T14:27","2014-04-07",113
"316","CDISCPILOT01","DS","01-705-1303",3," 3","ADVERSE EVENT","ADVERSE EVENT","DISPOSITION EVENT",11,"WEEK 20","2014-06-02","2014-06-02",169
"317","CDISCPILOT01","DS","01-705-1310",1,NA,"RANDOMIZED","RANDOMIZED","PROTOCOL MILESTONE",3,"BASELINE","2013-11-02","2013-11-02",1
"318","CDISCPILOT01","DS","01-705-1310",2," 3","ADVERSE EVENT","ADVERSE EVENT","DISPOSITION EVENT",9,"WEEK 12","2014-01-23","2014-01-23",83
"319","CDISCPILOT01","DS","01-705-1310",3,NA,"FINAL LAB VISIT","FINAL LAB VISIT","OTHER EVENT",9,"WEEK 12","2014-01-23T09:40","2014-01-23",83
"320","CDISCPILOT01","DS","01-705-1349",1,NA,"RANDOMIZED","RANDOMIZED","PROTOCOL MILESTONE",3,"BASELINE","2013-03-10","2013-03-10",1
"321","CDISCPILOT01","DS","01-705-1349",2,NA,"PROTOCOL COMPLETED","COMPLETED","DISPOSITION EVENT",13,"WEEK 26","2013-09-08","2013-09-08",183
"322","CDISCPILOT01","DS","01-705-1349",3,NA,"FINAL LAB VISIT","FINAL LAB VISIT","OTHER EVENT",13,"WEEK 26","2013-09-08T10:10","2013-09-08",183
"323","CDISCPILOT01","DS","01-705-1377",1,NA,"RANDOMIZED","RANDOMIZED","PROTOCOL MILESTONE",3,"BASELINE","2014-01-04","2014-01-04",1
"324","CDISCPILOT01","DS","01-705-1377",2,NA,"FINAL LAB VISIT","FINAL LAB VISIT","OTHER EVENT",5,"WEEK 4","2014-02-07T09:25","2014-02-07",35
"325","CDISCPILOT01","DS","01-705-1377",3,NA,"PATIENT WITHDREW CONSENT","WITHDRAWAL BY SUBJECT","DISPOSITION EVENT",7,"WEEK 6","2014-03-07","2014-03-07",63
"326","CDISCPILOT01","DS","01-705-1382",1,NA,"FINAL LAB VISIT","FINAL LAB VISIT","OTHER EVENT",1,"SCREENING 1","2013-05-09T11:15","2013-05-09",-4
"327","CDISCPILOT01","DS","01-705-1382",2,NA,"PROTOCOL ENTRY CRITERIA NOT MET","PROTOCOL VIOLATION","DISPOSITION EVENT",4,"WEEK 2","2013-05-13","2013-05-13",1
"328","CDISCPILOT01","DS","01-705-1382",3,NA,"RANDOMIZED","RANDOMIZED","PROTOCOL MILESTONE",3,"BASELINE","2013-05-13","2013-05-13",1
"329","CDISCPILOT01","DS","01-705-1393",1,NA,"RANDOMIZED","RANDOMIZED","PROTOCOL MILESTONE",3,"BASELINE","2012-09-07","2012-09-07",1
"330","CDISCPILOT01","DS","01-705-1393",2," 6","ADVERSE EVENT","ADVERSE EVENT","DISPOSITION EVENT",11,"WEEK 20","2013-02-20","2013-02-20",167
"331","CDISCPILOT01","DS","01-705-1393",3,NA,"FINAL LAB VISIT","FINAL LAB VISIT","OTHER EVENT",11,"WEEK 20","2013-02-20T16:35","2013-02-20",167
"332","CDISCPILOT01","DS","01-705-1421",1,NA,"SCREEN FAILURE","SCREEN FAILURE","DISPOSITION EVENT",1,"SCREENING 1","2013-01-14","2013-01-14",NA
"333","CDISCPILOT01","DS","01-705-1431",1,NA,"RANDOMIZED","RANDOMIZED","PROTOCOL MILESTONE",3,"BASELINE","2013-06-23","2013-06-23",1
"334","CDISCPILOT01","DS","01-705-1431",2,NA,"PROTOCOL COMPLETED","COMPLETED","DISPOSITION EVENT",13,"WEEK 26","2013-12-19","2013-12-19",180
"335","CDISCPILOT01","DS","01-705-1431",3,NA,"FINAL LAB VISIT","FINAL LAB VISIT","OTHER EVENT",13,"WEEK 26","2013-12-19T10:05","2013-12-19",180
"336","CDISCPILOT01","DS","01-706-1041",1,NA,"RANDOMIZED","RANDOMIZED","PROTOCOL MILESTONE",3,"BASELINE","2013-12-31","2013-12-31",1
"337","CDISCPILOT01","DS","01-706-1041",2,NA,"PROTOCOL COMPLETED","COMPLETED","DISPOSITION EVENT",13,"WEEK 26","2014-07-29","2014-07-29",211
"338","CDISCPILOT01","DS","01-706-1041",3,NA,"FINAL LAB VISIT","FINAL LAB VISIT","OTHER EVENT",13,"WEEK 26","2014-07-29T13:45","2014-07-29",211
"339","CDISCPILOT01","DS","01-706-1049",1,NA,"RANDOMIZED","RANDOMIZED","PROTOCOL MILESTONE",3,"BASELINE","2013-05-14","2013-05-14",1
"340","CDISCPILOT01","DS","01-706-1049",2," 5","ADVERSE EVENT","ADVERSE EVENT","DISPOSITION EVENT",7,"WEEK 6","2013-06-25","2013-06-25",43
"341","CDISCPILOT01","DS","01-706-1049",3,NA,"FINAL LAB VISIT","FINAL LAB VISIT","OTHER EVENT",7,"WEEK 6","2013-06-25T11:00","2013-06-25",43
"342","CDISCPILOT01","DS","01-706-1049",4,NA,"FINAL RETRIEVAL VISIT","FINAL RETRIEVAL VISIT","OTHER EVENT",201,"RETRIEVAL","2013-11-26","2013-11-26",197
"343","CDISCPILOT01","DS","01-706-1384",1,NA,"RANDOMIZED","RANDOMIZED","PROTOCOL MILESTONE",3,"BASELINE","2012-09-15","2012-09-15",1
"344","CDISCPILOT01","DS","01-706-1384",2,"14","ADVERSE EVENT","ADVERSE EVENT","DISPOSITION EVENT",4,"WEEK 2","2012-09-29","2012-09-29",15
"345","CDISCPILOT01","DS","01-706-1384",3,NA,"FINAL LAB VISIT","FINAL LAB VISIT","OTHER EVENT",4,"WEEK 2","2012-09-29T10:00","2012-09-29",15
"346","CDISCPILOT01","DS","01-706-1384",4,NA,"FINAL RETRIEVAL VISIT","FINAL RETRIEVAL VISIT","OTHER EVENT",201,"RETRIEVAL","2013-06-22","2013-06-22",281
"347","CDISCPILOT01","DS","01-707-1037",1,NA,"RANDOMIZED","RANDOMIZED","PROTOCOL MILESTONE",3,"BASELINE","2013-12-20","2013-12-20",1
"348","CDISCPILOT01","DS","01-707-1037",2,NA,"WITHDRAWS CONSENT","WITHDRAWAL BY SUBJECT","DISPOSITION EVENT",4,"WEEK 2","2014-01-08","2014-01-08",20
"349","CDISCPILOT01","DS","01-707-1037",3,NA,"FINAL LAB VISIT","FINAL LAB VISIT","OTHER EVENT",4,"WEEK 2","2014-01-08T12:40","2014-01-08",20
"350","CDISCPILOT01","DS","01-707-1206",1,NA,"RANDOMIZED","RANDOMIZED","PROTOCOL MILESTONE",3,"BASELINE","2013-10-28","2013-10-28",1
"351","CDISCPILOT01","DS","01-707-1206",2,NA,"PROTOCOL COMPLETED","COMPLETED","DISPOSITION EVENT",13,"WEEK 26","2014-04-27","2014-04-27",182
"352","CDISCPILOT01","DS","01-707-1206",3,NA,"FINAL LAB VISIT","FINAL LAB VISIT","OTHER EVENT",13,"WEEK 26","2014-04-27T08:00","2014-04-27",182
"353","CDISCPILOT01","DS","01-707-1276",1,NA,"SCREEN FAILURE","SCREEN FAILURE","DISPOSITION EVENT",1,"SCREENING 1","2012-10-12","2012-10-12",NA
"354","CDISCPILOT01","DS","01-707-1430",1,NA,"SCREEN FAILURE","SCREEN FAILURE","DISPOSITION EVENT",1,"SCREENING 1","2014-02-14","2014-02-14",NA
"355","CDISCPILOT01","DS","01-707-1434",1,NA,"SCREEN FAILURE","SCREEN FAILURE","DISPOSITION EVENT",1,"SCREENING 1","2013-07-25","2013-07-25",NA
"356","CDISCPILOT01","DS","01-708-1013",1,NA,"SCREEN FAILURE","SCREEN FAILURE","DISPOSITION EVENT",1,"SCREENING 1","2012-10-13","2012-10-13",NA
"357","CDISCPILOT01","DS","01-708-1019",1,NA,"RANDOMIZED","RANDOMIZED","PROTOCOL MILESTONE",3,"BASELINE","2013-12-20","2013-12-20",1
"358","CDISCPILOT01","DS","01-708-1019",2," 6","ADVERSE EVENT","ADVERSE EVENT","DISPOSITION EVENT",4,"WEEK 2","2014-01-23","2014-01-23",35
"359","CDISCPILOT01","DS","01-708-1019",3,NA,"FINAL LAB VISIT","FINAL LAB VISIT","OTHER EVENT",4,"WEEK 2","2014-01-23T10:10","2014-01-23",35
"360","CDISCPILOT01","DS","01-708-1032",1,NA,"RANDOMIZED","RANDOMIZED","PROTOCOL MILESTONE",3,"BASELINE","2013-02-09","2013-02-09",1
"361","CDISCPILOT01","DS","01-708-1032",2," 5","ADVERSE EVENT","ADVERSE EVENT","DISPOSITION EVENT",5,"WEEK 4","2013-03-09","2013-03-09",29
"362","CDISCPILOT01","DS","01-708-1032",3,NA,"FINAL LAB VISIT","FINAL LAB VISIT","OTHER EVENT",5,"WEEK 4","2013-03-09T10:45","2013-03-09",29
"363","CDISCPILOT01","DS","01-708-1054",1,NA,"SCREEN FAILURE","SCREEN FAILURE","DISPOSITION EVENT",1,"SCREENING 1","2014-02-14","2014-02-14",NA
"364","CDISCPILOT01","DS","01-708-1067",1,NA,"SCREEN FAILURE","SCREEN FAILURE","DISPOSITION EVENT",1,"SCREENING 1","2013-02-07","2013-02-07",NA
"365","CDISCPILOT01","DS","01-708-1084",1,NA,"RANDOMIZED","RANDOMIZED","PROTOCOL MILESTONE",3,"BASELINE","2013-05-09","2013-05-09",1
"366","CDISCPILOT01","DS","01-708-1084",2,NA,"PROTOCOL COMPLETED","COMPLETED","DISPOSITION EVENT",13,"WEEK 26","2013-11-11","2013-11-11",187
"367","CDISCPILOT01","DS","01-708-1084",3,NA,"FINAL LAB VISIT","FINAL LAB VISIT","OTHER EVENT",13,"WEEK 26","2013-11-11T10:00","2013-11-11",187
"368","CDISCPILOT01","DS","01-708-1087",1,NA,"RANDOMIZED","RANDOMIZED","PROTOCOL MILESTONE",3,"BASELINE","2012-10-22","2012-10-22",1
"369","CDISCPILOT01","DS","01-708-1087",2,NA,"PROTOCOL COMPLETED","COMPLETED","DISPOSITION EVENT",13,"WEEK 26","2013-04-28","2013-04-28",189
"370","CDISCPILOT01","DS","01-708-1087",3,NA,"FINAL LAB VISIT","FINAL LAB VISIT","OTHER EVENT",13,"WEEK 26","2013-04-28T12:40","2013-04-28",189
"371","CDISCPILOT01","DS","01-708-1104",1,NA,"SCREEN FAILURE","SCREEN FAILURE","DISPOSITION EVENT",1,"SCREENING 1","2014-01-23","2014-01-23",NA
"372","CDISCPILOT01","DS","01-708-1158",1,NA,"RANDOMIZED","RANDOMIZED","PROTOCOL MILESTONE",3,"BASELINE","2014-02-08","2014-02-08",1
"373","CDISCPILOT01","DS","01-708-1158",2," 8","ADVERSE EVENT","ADVERSE EVENT","DISPOSITION EVENT",7,"WEEK 6","2014-03-22","2014-03-22",43
"374","CDISCPILOT01","DS","01-708-1158",3,NA,"FINAL LAB VISIT","FINAL LAB VISIT","OTHER EVENT",7,"WEEK 6","2014-03-22T11:15","2014-03-22",43
"375","CDISCPILOT01","DS","01-708-1171",1,NA,"RANDOMIZED","RANDOMIZED","PROTOCOL MILESTONE",3,"BASELINE","2012-12-06","2012-12-06",1
"376","CDISCPILOT01","DS","01-708-1171",2,NA,"FINAL LAB VISIT","FINAL LAB VISIT","OTHER EVENT",13,"WEEK 26","2013-06-03T10:40","2013-06-03",180
"377","CDISCPILOT01","DS","01-708-1171",3,NA,"PROTOCOL COMPLETED","COMPLETED","DISPOSITION EVENT",13,"WEEK 26","2013-06-04","2013-06-04",181
"378","CDISCPILOT01","DS","01-708-1178",1,NA,"RANDOMIZED","RANDOMIZED","PROTOCOL MILESTONE",3,"BASELINE","2013-12-29","2013-12-29",1
"379","CDISCPILOT01","DS","01-708-1178",2,NA,"DR PUT PT ON AN EXCLUDED MEDICATION","PHYSICIAN DECISION","DISPOSITION EVENT",9,"WEEK 12","2014-04-06","2014-04-06",99
"380","CDISCPILOT01","DS","01-708-1178",3,NA,"FINAL LAB VISIT","FINAL LAB VISIT","OTHER EVENT",9,"WEEK 12","2014-04-06T08:50","2014-04-06",99
"381","CDISCPILOT01","DS","01-708-1184",1,NA,"SCREEN FAILURE","SCREEN FAILURE","DISPOSITION EVENT",1,"SCREENING 1","2013-01-14","2013-01-14",NA
"382","CDISCPILOT01","DS","01-708-1213",1,NA,"RANDOMIZED","RANDOMIZED","PROTOCOL MILESTONE",3,"BASELINE","2013-02-09","2013-02-09",1
"383","CDISCPILOT01","DS","01-708-1213",2,NA,"FINAL LAB VISIT","FINAL LAB VISIT","OTHER EVENT",4,"WEEK 2","2013-02-22T11:05","2013-02-22",14
"384","CDISCPILOT01","DS","01-708-1213",3," 4","ADVERSE EVENT","ADVERSE EVENT","DISPOSITION EVENT",5,"WEEK 4","2013-02-26","2013-02-26",18
"385","CDISCPILOT01","DS","01-708-1216",1,NA,"RANDOMIZED","RANDOMIZED","PROTOCOL MILESTONE",3,"BASELINE","2012-10-24","2012-10-24",1
"386","CDISCPILOT01","DS","01-708-1216",2," 4","ADVERSE EVENT","ADVERSE EVENT","DISPOSITION EVENT",7,"WEEK 6","2012-12-06","2012-12-06",44
"387","CDISCPILOT01","DS","01-708-1216",3,NA,"FINAL LAB VISIT","FINAL LAB VISIT","OTHER EVENT",7,"WEEK 6","2012-12-06T11:50","2012-12-06",44
"388","CDISCPILOT01","DS","01-708-1236",1,NA,"FINAL LAB VISIT","FINAL LAB VISIT","OTHER EVENT",1.1,"UNSCHEDULED 1.1","2013-09-19T10:35","2013-09-19",-2
"389","CDISCPILOT01","DS","01-708-1236",2,NA,"RANDOMIZED","RANDOMIZED","PROTOCOL MILESTONE",3,"BASELINE","2013-09-21","2013-09-21",1
"390","CDISCPILOT01","DS","01-708-1236",3,NA,"PATIENT WITHDREW CONSENT","WITHDRAWAL BY SUBJECT","DISPOSITION EVENT",4,"WEEK 2","2013-09-26","2013-09-26",6
"391","CDISCPILOT01","DS","01-708-1242",1,NA,"SCREEN FAILURE","SCREEN FAILURE","DISPOSITION EVENT",1,"SCREENING 1","2012-08-13","2012-08-13",NA
"392","CDISCPILOT01","DS","01-708-1253",1,NA,"RANDOMIZED","RANDOMIZED","PROTOCOL MILESTONE",3,"BASELINE","2013-05-07","2013-05-07",1
"393","CDISCPILOT01","DS","01-708-1253",2,NA,"FINAL LAB VISIT","FINAL LAB VISIT","OTHER EVENT",13,"WEEK 26","2013-11-04T13:40","2013-11-04",182
"394","CDISCPILOT01","DS","01-708-1253",3,NA,"PROTOCOL COMPLETED","COMPLETED","DISPOSITION EVENT",13,"WEEK 26","2013-11-05","2013-11-05",183
"395","CDISCPILOT01","DS","01-708-1272",1,NA,"RANDOMIZED","RANDOMIZED","PROTOCOL MILESTONE",3,"BASELINE","2013-02-06","2013-02-06",1
"396","CDISCPILOT01","DS","01-708-1272",2,NA,"PATCH DISCOMFORT","WITHDRAWAL BY SUBJECT","DISPOSITION EVENT",8,"WEEK 8","2013-04-04","2013-04-04",58
"397","CDISCPILOT01","DS","01-708-1272",3,NA,"FINAL LAB VISIT","FINAL LAB VISIT","OTHER EVENT",8,"WEEK 8","2013-04-04T11:05","2013-04-04",58
"398","CDISCPILOT01","DS","01-708-1286",1,NA,"RANDOMIZED","RANDOMIZED","PROTOCOL MILESTONE",3,"BASELINE","2013-09-10","2013-09-10",1
"399","CDISCPILOT01","DS","01-708-1286",2,NA,"PROTOCOL COMPLETED","COMPLETED","DISPOSITION EVENT",13,"WEEK 26","2014-03-08","2014-03-08",180
"400","CDISCPILOT01","DS","01-708-1286",3,NA,"FINAL LAB VISIT","FINAL LAB VISIT","OTHER EVENT",13,"WEEK 26","2014-03-08T09:50","2014-03-08",180
"401","CDISCPILOT01","DS","01-708-1296",1,NA,"RANDOMIZED","RANDOMIZED","PROTOCOL MILESTONE",3,"BASELINE","2013-06-14","2013-06-14",1
"402","CDISCPILOT01","DS","01-708-1296",2,NA,"PROTOCOL COMPLETED","COMPLETED","DISPOSITION EVENT",13,"WEEK 26","2013-12-12","2013-12-12",182
"403","CDISCPILOT01","DS","01-708-1296",3,NA,"FINAL LAB VISIT","FINAL LAB VISIT","OTHER EVENT",13,"WEEK 26","2013-12-12T09:30","2013-12-12",182
"404","CDISCPILOT01","DS","01-708-1297",1,NA,"RANDOMIZED","RANDOMIZED","PROTOCOL MILESTONE",3,"BASELINE","2013-01-25","2013-01-25",1
"405","CDISCPILOT01","DS","01-708-1297",2," 4","ADVERSE EVENT","ADVERSE EVENT","DISPOSITION EVENT",10,"WEEK 16","2013-05-08","2013-05-08",104
"406","CDISCPILOT01","DS","01-708-1297",3,NA,"FINAL LAB VISIT","FINAL LAB VISIT","OTHER EVENT",10,"WEEK 16","2013-05-08T10:30","2013-05-08",104
"407","CDISCPILOT01","DS","01-708-1316",1,NA,"RANDOMIZED","RANDOMIZED","PROTOCOL MILESTONE",3,"BASELINE","2013-08-23","2013-08-23",1
"408","CDISCPILOT01","DS","01-708-1316",2,NA,"PROTOCOL COMPLETED","COMPLETED","DISPOSITION EVENT",13,"WEEK 26","2014-03-01","2014-03-01",191
"409","CDISCPILOT01","DS","01-708-1316",3,NA,"FINAL LAB VISIT","FINAL LAB VISIT","OTHER EVENT",13,"WEEK 26","2014-03-01T10:25","2014-03-01",191
"410","CDISCPILOT01","DS","01-708-1336",1,NA,"RANDOMIZED","RANDOMIZED","PROTOCOL MILESTONE",3,"BASELINE","2012-12-07","2012-12-07",1
"411","CDISCPILOT01","DS","01-708-1336",2,NA,"PROTOCOL COMPLETED","COMPLETED","DISPOSITION EVENT",13,"WEEK 26","2013-06-05","2013-06-05",181
"412","CDISCPILOT01","DS","01-708-1336",3,NA,"FINAL LAB VISIT","FINAL LAB VISIT","OTHER EVENT",13,"WEEK 26","2013-06-05","2013-06-05",181
"413","CDISCPILOT01","DS","01-708-1342",1,NA,"RANDOMIZED","RANDOMIZED","PROTOCOL MILESTONE",3,"BASELINE","2012-12-29","2012-12-29",1
"414","CDISCPILOT01","DS","01-708-1342",2,NA,"PROTOCOL COMPLETED","COMPLETED","DISPOSITION EVENT",13,"WEEK 26","2013-06-28","2013-06-28",182
"415","CDISCPILOT01","DS","01-708-1342",3,NA,"FINAL LAB VISIT","FINAL LAB VISIT","OTHER EVENT",13,"WEEK 26","2013-06-28T09:40","2013-06-28",182
"416","CDISCPILOT01","DS","01-708-1347",1,NA,"RANDOMIZED","RANDOMIZED","PROTOCOL MILESTONE",3,"BASELINE","2013-04-20","2013-04-20",1
"417","CDISCPILOT01","DS","01-708-1347",2," 5","ADVERSE EVENT","ADVERSE EVENT","DISPOSITION EVENT",9,"WEEK 12","2013-06-18","2013-06-18",60
"418","CDISCPILOT01","DS","01-708-1347",3,NA,"FINAL LAB VISIT","FINAL LAB VISIT","OTHER EVENT",9,"WEEK 12","2013-06-18T09:20","2013-06-18",60
"419","CDISCPILOT01","DS","01-708-1348",1,NA,"RANDOMIZED","RANDOMIZED","PROTOCOL MILESTONE",3,"BASELINE","2013-08-05","2013-08-05",1
"420","CDISCPILOT01","DS","01-708-1348",2,NA,"PROTOCOL COMPLETED","COMPLETED","DISPOSITION EVENT",13,"WEEK 26","2014-02-13","2014-02-13",193
"421","CDISCPILOT01","DS","01-708-1348",3,NA,"FINAL LAB VISIT","FINAL LAB VISIT","OTHER EVENT",13,"WEEK 26","2014-02-13T10:25","2014-02-13",193
"422","CDISCPILOT01","DS","01-708-1352",1,NA,"SCREEN FAILURE","SCREEN FAILURE","DISPOSITION EVENT",1,"SCREENING 1","2013-09-16","2013-09-16",NA
"423","CDISCPILOT01","DS","01-708-1353",1,NA,"RANDOMIZED","RANDOMIZED","PROTOCOL MILESTONE",3,"BASELINE","2013-07-04","2013-07-04",1
"424","CDISCPILOT01","DS","01-708-1353",2," 7","ADVERSE EVENT","ADVERSE EVENT","DISPOSITION EVENT",8,"WEEK 8","2013-09-10","2013-09-10",69
"425","CDISCPILOT01","DS","01-708-1353",3,NA,"FINAL LAB VISIT","FINAL LAB VISIT","OTHER EVENT",8,"WEEK 8","2013-09-10T13:15","2013-09-10",69
"426","CDISCPILOT01","DS","01-708-1372",1,NA,"FINAL LAB VISIT","FINAL LAB VISIT","OTHER EVENT",1,"SCREENING 1","2013-04-03T11:00","2013-04-03",-9
"427","CDISCPILOT01","DS","01-708-1372",2,NA,"RANDOMIZED","RANDOMIZED","PROTOCOL MILESTONE",3,"BASELINE","2013-04-12","2013-04-12",1
"428","CDISCPILOT01","DS","01-708-1372",3,NA,"PROTOCOL ENTRY CRITERIA NOT MET","PROTOCOL VIOLATION","DISPOSITION EVENT",4,"WEEK 2","2013-05-10","2013-05-10",29
"429","CDISCPILOT01","DS","01-708-1378",1,NA,"RANDOMIZED","RANDOMIZED","PROTOCOL MILESTONE",3,"BASELINE","2013-09-03","2013-09-03",1
"430","CDISCPILOT01","DS","01-708-1378",2,NA,"SPONSOR DECISION (STUDY OR PATIENT DISCONTINUED BY THE SPONSOR)","STUDY TERMINATED BY SPONSOR","DISPOSITION EVENT",11,"WEEK 20","2014-01-28","2014-01-28",148
"431","CDISCPILOT01","DS","01-708-1378",3,NA,"FINAL LAB VISIT","FINAL LAB VISIT","OTHER EVENT",11,"WEEK 20","2014-01-28T13:00","2014-01-28",148
"432","CDISCPILOT01","DS","01-708-1406",1,NA,"RANDOMIZED","RANDOMIZED","PROTOCOL MILESTONE",3,"BASELINE","2013-12-26","2013-12-26",1
"433","CDISCPILOT01","DS","01-708-1406",2,NA,"PROTOCOL COMPLETED","COMPLETED","DISPOSITION EVENT",13,"WEEK 26","2014-07-02","2014-07-02",189
"434","CDISCPILOT01","DS","01-708-1406",3,NA,"FINAL LAB VISIT","FINAL LAB VISIT","OTHER EVENT",13,"WEEK 26","2014-07-02T13:45","2014-07-02",189
"435","CDISCPILOT01","DS","01-708-1428",1,NA,"RANDOMIZED","RANDOMIZED","PROTOCOL MILESTONE",3,"BASELINE","2013-11-09","2013-11-09",1
"436","CDISCPILOT01","DS","01-708-1428",2," 2","ADVERSE EVENT","ADVERSE EVENT","DISPOSITION EVENT",8,"WEEK 8","2014-01-31","2014-01-31",84
"437","CDISCPILOT01","DS","01-708-1428",3,NA,"FINAL LAB VISIT","FINAL LAB VISIT","OTHER EVENT",8,"WEEK 8","2014-01-31T11:10","2014-01-31",84
"438","CDISCPILOT01","DS","01-709-1001",1,NA,"RANDOMIZED","RANDOMIZED","PROTOCOL MILESTONE",3,"BASELINE","2013-10-08","2013-10-08",1
"439","CDISCPILOT01","DS","01-709-1001",2,NA,"FINAL LAB VISIT","FINAL LAB VISIT","OTHER EVENT",12,"WEEK 24","2014-03-17T11:10","2014-03-17",161
"440","CDISCPILOT01","DS","01-709-1001",3,NA,"PROTOCOL COMPLETED","COMPLETED","DISPOSITION EVENT",13,"WEEK 26","2014-04-08","2014-04-08",183
"441","CDISCPILOT01","DS","01-709-1007",1,NA,"RANDOMIZED","RANDOMIZED","PROTOCOL MILESTONE",3,"BASELINE","2012-07-31","2012-07-31",1
"442","CDISCPILOT01","DS","01-709-1007",2," 4","ADVERSE EVENT","ADVERSE EVENT","DISPOSITION EVENT",5,"WEEK 4","2012-09-01","2012-09-01",33
"443","CDISCPILOT01","DS","01-709-1007",3,NA,"FINAL LAB VISIT","FINAL LAB VISIT","OTHER EVENT",5,"WEEK 4","2012-09-01T12:30","2012-09-01",33
"444","CDISCPILOT01","DS","01-709-1020",1,NA,"RANDOMIZED","RANDOMIZED","PROTOCOL MILESTONE",3,"BASELINE","2012-12-01","2012-12-01",1
"445","CDISCPILOT01","DS","01-709-1020",2,NA,"PROTOCOL COMPLETED","COMPLETED","DISPOSITION EVENT",13,"WEEK 26","2013-06-01","2013-06-01",183
"446","CDISCPILOT01","DS","01-709-1020",3,NA,"FINAL LAB VISIT","FINAL LAB VISIT","OTHER EVENT",13,"WEEK 26","2013-06-01T10:40","2013-06-01",183
"447","CDISCPILOT01","DS","01-709-1029",1,NA,"RANDOMIZED","RANDOMIZED","PROTOCOL MILESTONE",3,"BASELINE","2012-12-25","2012-12-25",1
"448","CDISCPILOT01","DS","01-709-1029",2,NA,"PROTOCOL COMPLETED","COMPLETED","DISPOSITION EVENT",13,"WEEK 26","2013-06-26","2013-06-26",184
"449","CDISCPILOT01","DS","01-709-1029",3,NA,"FINAL LAB VISIT","FINAL LAB VISIT","OTHER EVENT",13,"WEEK 26","2013-06-26T10:58","2013-06-26",184
"450","CDISCPILOT01","DS","01-709-1081",1,NA,"RANDOMIZED","RANDOMIZED","PROTOCOL MILESTONE",3,"BASELINE","2014-01-18","2014-01-18",1
"451","CDISCPILOT01","DS","01-709-1081",2," 8","ADVERSE EVENT","ADVERSE EVENT","DISPOSITION EVENT",10,"WEEK 16","2014-05-10","2014-05-10",113
"452","CDISCPILOT01","DS","01-709-1081",3,NA,"FINAL LAB VISIT","FINAL LAB VISIT","OTHER EVENT",10,"WEEK 16","2014-05-10T11:15","2014-05-10",113
"453","CDISCPILOT01","DS","01-709-1088",1,NA,"RANDOMIZED","RANDOMIZED","PROTOCOL MILESTONE",3,"BASELINE","2014-04-12","2014-04-12",1
"454","CDISCPILOT01","DS","01-709-1088",2,NA,"PROTOCOL COMPLETED","COMPLETED","DISPOSITION EVENT",13,"WEEK 26","2014-10-09","2014-10-09",181
"455","CDISCPILOT01","DS","01-709-1088",3,NA,"FINAL LAB VISIT","FINAL LAB VISIT","OTHER EVENT",13,"WEEK 26","2014-10-09T13:25","2014-10-09",181
"456","CDISCPILOT01","DS","01-709-1099",1,NA,"RANDOMIZED","RANDOMIZED","PROTOCOL MILESTONE",3,"BASELINE","2013-10-25","2013-10-25",1
"457","CDISCPILOT01","DS","01-709-1099",2,NA,"PROTOCOL COMPLETED","COMPLETED","DISPOSITION EVENT",13,"WEEK 26","2014-04-25","2014-04-25",183
"458","CDISCPILOT01","DS","01-709-1099",3,NA,"FINAL LAB VISIT","FINAL LAB VISIT","OTHER EVENT",13,"WEEK 26","2014-04-25T09:10","2014-04-25",183
"459","CDISCPILOT01","DS","01-709-1102",1,NA,"RANDOMIZED","RANDOMIZED","PROTOCOL MILESTONE",3,"BASELINE","2013-01-15","2013-01-15",1
"460","CDISCPILOT01","DS","01-709-1102",2," 4","ADVERSE EVENT","ADVERSE EVENT","DISPOSITION EVENT",9,"WEEK 12","2013-03-31","2013-03-31",76
"461","CDISCPILOT01","DS","01-709-1102",3,NA,"FINAL LAB VISIT","FINAL LAB VISIT","OTHER EVENT",9,"WEEK 12","2013-03-31T12:15","2013-03-31",76
"462","CDISCPILOT01","DS","01-709-1168",1,NA,"RANDOMIZED","RANDOMIZED","PROTOCOL MILESTONE",3,"BASELINE","2013-08-02","2013-08-02",1
"463","CDISCPILOT01","DS","01-709-1168",2," 3","ADVERSE EVENT","ADVERSE EVENT","DISPOSITION EVENT",8,"WEEK 8","2013-09-27","2013-09-27",57
"464","CDISCPILOT01","DS","01-709-1168",3,NA,"FINAL LAB VISIT","FINAL LAB VISIT","OTHER EVENT",8,"WEEK 8","2013-09-27T10:05","2013-09-27",57
"465","CDISCPILOT01","DS","01-709-1217",1,NA,"RANDOMIZED","RANDOMIZED","PROTOCOL MILESTONE",3,"BASELINE","2013-03-04","2013-03-04",1
"466","CDISCPILOT01","DS","01-709-1217",2,"14","ADVERSE EVENT","ADVERSE EVENT","DISPOSITION EVENT",10,"WEEK 16","2013-06-25","2013-06-25",114
"467","CDISCPILOT01","DS","01-709-1217",3,NA,"FINAL LAB VISIT","FINAL LAB VISIT","OTHER EVENT",10,"WEEK 16","2013-06-25T10:35","2013-06-25",114
"468","CDISCPILOT01","DS","01-709-1224",1,NA,"SCREEN FAILURE","SCREEN FAILURE","DISPOSITION EVENT",1,"SCREENING 1","2013-11-18","2013-11-18",NA
"469","CDISCPILOT01","DS","01-709-1237",1,NA,"SCREEN FAILURE","SCREEN FAILURE","DISPOSITION EVENT",1,"SCREENING 1","2014-01-17","2014-01-17",NA
"470","CDISCPILOT01","DS","01-709-1238",1,NA,"RANDOMIZED","RANDOMIZED","PROTOCOL MILESTONE",3,"BASELINE","2013-05-15","2013-05-15",1
"471","CDISCPILOT01","DS","01-709-1238",2," 9","ADVERSE EVENT","ADVERSE EVENT","DISPOSITION EVENT",9,"WEEK 12","2013-08-07","2013-08-07",85
"472","CDISCPILOT01","DS","01-709-1238",3,NA,"FINAL LAB VISIT","FINAL LAB VISIT","OTHER EVENT",9,"WEEK 12","2013-08-07T13:20","2013-08-07",85
"473","CDISCPILOT01","DS","01-709-1259",1,NA,"RANDOMIZED","RANDOMIZED","PROTOCOL MILESTONE",3,"BASELINE","2013-01-26","2013-01-26",1
"474","CDISCPILOT01","DS","01-709-1259",2,NA,"LACK OF EFFICACY, PATIENT CAREGIVER PERCEPTION","LACK OF EFFICACY","DISPOSITION EVENT",11,"WEEK 20","2013-06-13","2013-06-13",139
"475","CDISCPILOT01","DS","01-709-1259",3,NA,"FINAL LAB VISIT","FINAL LAB VISIT","OTHER EVENT",11,"WEEK 20","2013-06-13T12:23","2013-06-13",139
"476","CDISCPILOT01","DS","01-709-1285",1,NA,"RANDOMIZED","RANDOMIZED","PROTOCOL MILESTONE",3,"BASELINE","2013-03-24","2013-03-24",1
"477","CDISCPILOT01","DS","01-709-1285",2,NA,"SPONSOR DECISION (STUDY OR PATIENT DISCONTINUED BY THE SPONSOR)","STUDY TERMINATED BY SPONSOR","DISPOSITION EVENT",9,"WEEK 12","2013-05-31","2013-05-31",69
"478","CDISCPILOT01","DS","01-709-1285",3,NA,"FINAL LAB VISIT","FINAL LAB VISIT","OTHER EVENT",9,"WEEK 12","2013-05-31T13:15","2013-05-31",69
"479","CDISCPILOT01","DS","01-709-1301",1,NA,"RANDOMIZED","RANDOMIZED","PROTOCOL MILESTONE",3,"BASELINE","2013-07-19","2013-07-19",1
"480","CDISCPILOT01","DS","01-709-1301",2,NA,"PROTOCOL COMPLETED","COMPLETED","DISPOSITION EVENT",13,"WEEK 26","2014-01-17","2014-01-17",183
"481","CDISCPILOT01","DS","01-709-1301",3,NA,"FINAL LAB VISIT","FINAL LAB VISIT","OTHER EVENT",13,"WEEK 26","2014-01-17T10:07","2014-01-17",183
"482","CDISCPILOT01","DS","01-709-1306",1,NA,"RANDOMIZED","RANDOMIZED","PROTOCOL MILESTONE",3,"BASELINE","2014-02-03","2014-02-03",1
"483","CDISCPILOT01","DS","01-709-1306",2," 3","ADVERSE EVENT","ADVERSE EVENT","DISPOSITION EVENT",11,"WEEK 20","2014-06-25","2014-06-25",143
"484","CDISCPILOT01","DS","01-709-1306",3,NA,"FINAL LAB VISIT","FINAL LAB VISIT","OTHER EVENT",11,"WEEK 20","2014-06-25T10:45","2014-06-25",143
"485","CDISCPILOT01","DS","01-709-1309",1,NA,"RANDOMIZED","RANDOMIZED","PROTOCOL MILESTONE",3,"BASELINE","2013-06-19","2013-06-19",1
"486","CDISCPILOT01","DS","01-709-1309",2,NA,"PROTOCOL COMPLETED","COMPLETED","DISPOSITION EVENT",13,"WEEK 26","2013-12-19","2013-12-19",184
"487","CDISCPILOT01","DS","01-709-1309",3,NA,"FINAL LAB VISIT","FINAL LAB VISIT","OTHER EVENT",13,"WEEK 26","2013-12-19T10:35","2013-12-19",184
"488","CDISCPILOT01","DS","01-709-1312",1,NA,"RANDOMIZED","RANDOMIZED","PROTOCOL MILESTONE",3,"BASELINE","2014-04-20","2014-04-20",1
"489","CDISCPILOT01","DS","01-709-1312",2,NA,"PROTOCOL COMPLETED","COMPLETED","DISPOSITION EVENT",13,"WEEK 26","2014-10-19","2014-10-19",183
"490","CDISCPILOT01","DS","01-709-1312",3,NA,"FINAL LAB VISIT","FINAL LAB VISIT","OTHER EVENT",13,"WEEK 26","2014-10-19T10:00","2014-10-19",183
"491","CDISCPILOT01","DS","01-709-1326",1,NA,"RANDOMIZED","RANDOMIZED","PROTOCOL MILESTONE",3,"BASELINE","2013-04-05","2013-04-05",1
"492","CDISCPILOT01","DS","01-709-1326",2,NA,"PROTOCOL COMPLETED","COMPLETED","DISPOSITION EVENT",13,"WEEK 26","2013-10-02","2013-10-02",181
"493","CDISCPILOT01","DS","01-709-1326",3,NA,"FINAL LAB VISIT","FINAL LAB VISIT","OTHER EVENT",13,"WEEK 26","2013-10-02T09:40","2013-10-02",181
"494","CDISCPILOT01","DS","01-709-1329",1,NA,"RANDOMIZED","RANDOMIZED","PROTOCOL MILESTONE",3,"BASELINE","2013-08-15","2013-08-15",1
"495","CDISCPILOT01","DS","01-709-1329",2,NA,"CAREGIVER BURDEN","WITHDRAWAL BY SUBJECT","DISPOSITION EVENT",4,"WEEK 2","2013-08-29","2013-08-29",15
"496","CDISCPILOT01","DS","01-709-1329",3,NA,"FINAL LAB VISIT","FINAL LAB VISIT","OTHER EVENT",4,"WEEK 2","2013-08-29T10:35","2013-08-29",15
"497","CDISCPILOT01","DS","01-709-1339",1,NA,"RANDOMIZED","RANDOMIZED","PROTOCOL MILESTONE",3,"BASELINE","2012-12-23","2012-12-23",1
"498","CDISCPILOT01","DS","01-709-1339",2,NA,"PROTOCOL COMPLETED","COMPLETED","DISPOSITION EVENT",13,"WEEK 26","2013-06-24","2013-06-24",184
"499","CDISCPILOT01","DS","01-709-1339",3,NA,"FINAL LAB VISIT","FINAL LAB VISIT","OTHER EVENT",13,"WEEK 26","2013-06-24T10:10","2013-06-24",184
"500","CDISCPILOT01","DS","01-709-1424",1,NA,"RANDOMIZED","RANDOMIZED","PROTOCOL MILESTONE",3,"BASELINE","2013-03-03","2013-03-03",1
"501","CDISCPILOT01","DS","01-709-1424",2," 7","ADVERSE EVENT","ADVERSE EVENT","DISPOSITION EVENT",4,"WEEK 2","2013-03-08","2013-03-08",6
"502","CDISCPILOT01","DS","01-709-1424",3,NA,"FINAL LAB VISIT","FINAL LAB VISIT","OTHER EVENT",4.1,"UNSCHEDULED 4.1","2013-03-17","2013-03-17",15
"503","CDISCPILOT01","DS","01-710-1002",1,NA,"RANDOMIZED","RANDOMIZED","PROTOCOL MILESTONE",3,"BASELINE","2014-01-14","2014-01-14",1
"504","CDISCPILOT01","DS","01-710-1002",2," 6","ADVERSE EVENT","ADVERSE EVENT","DISPOSITION EVENT",4,"WEEK 2","2014-01-18","2014-01-18",5
"505","CDISCPILOT01","DS","01-710-1002",3,NA,"FINAL LAB VISIT","FINAL LAB VISIT","OTHER EVENT",4,"WEEK 2","2014-01-18T15:00","2014-01-18",5
"506","CDISCPILOT01","DS","01-710-1006",1,NA,"RANDOMIZED","RANDOMIZED","PROTOCOL MILESTONE",3,"BASELINE","2013-02-10","2013-02-10",1
"507","CDISCPILOT01","DS","01-710-1006",2,NA,"PROTOCOL COMPLETED","COMPLETED","DISPOSITION EVENT",13,"WEEK 26","2013-08-10","2013-08-10",182
"508","CDISCPILOT01","DS","01-710-1006",3,NA,"FINAL LAB VISIT","FINAL LAB VISIT","OTHER EVENT",13,"WEEK 26","2013-08-10T10:10","2013-08-10",182
"509","CDISCPILOT01","DS","01-710-1021",1,NA,"RANDOMIZED","RANDOMIZED","PROTOCOL MILESTONE",3,"BASELINE","2013-09-27","2013-09-27",1
"510","CDISCPILOT01","DS","01-710-1021",2," 5","ADVERSE EVENT","ADVERSE EVENT","DISPOSITION EVENT",7,"WEEK 6","2013-11-12","2013-11-12",47
"511","CDISCPILOT01","DS","01-710-1021",3,NA,"FINAL LAB VISIT","FINAL LAB VISIT","OTHER EVENT",7,"WEEK 6","2013-11-12T16:35","2013-11-12",47
"512","CDISCPILOT01","DS","01-710-1027",1,NA,"RANDOMIZED","RANDOMIZED","PROTOCOL MILESTONE",3,"BASELINE","2014-02-28","2014-02-28",1
"513","CDISCPILOT01","DS","01-710-1027",2,NA,"PROTOCOL COMPLETED","COMPLETED","DISPOSITION EVENT",13,"WEEK 26","2014-08-29","2014-08-29",183
"514","CDISCPILOT01","DS","01-710-1027",3,NA,"FINAL LAB VISIT","FINAL LAB VISIT","OTHER EVENT",13,"WEEK 26","2014-08-29T11:05","2014-08-29",183
"515","CDISCPILOT01","DS","01-710-1045",1,NA,"RANDOMIZED","RANDOMIZED","PROTOCOL MILESTONE",3,"BASELINE","2013-06-03","2013-06-03",1
"516","CDISCPILOT01","DS","01-710-1045",2," 8","ADVERSE EVENT","ADVERSE EVENT","DISPOSITION EVENT",9,"WEEK 12","2013-08-17","2013-08-17",76
"517","CDISCPILOT01","DS","01-710-1045",3,NA,"FINAL LAB VISIT","FINAL LAB VISIT","OTHER EVENT",9,"WEEK 12","2013-08-17T12:30","2013-08-17",76
"518","CDISCPILOT01","DS","01-710-1053",1,NA,"RANDOMIZED","RANDOMIZED","PROTOCOL MILESTONE",3,"BASELINE","2012-12-26","2012-12-26",1
"519","CDISCPILOT01","DS","01-710-1053",2," 5","ADVERSE EVENT","ADVERSE EVENT","DISPOSITION EVENT",8,"WEEK 8","2013-02-15","2013-02-15",52
"520","CDISCPILOT01","DS","01-710-1053",3,NA,"FINAL LAB VISIT","FINAL LAB VISIT","OTHER EVENT",8.2,"UNSCHEDULED 8.2","2013-02-26T13:25","2013-02-26",63
"521","CDISCPILOT01","DS","01-710-1060",1,NA,"RANDOMIZED","RANDOMIZED","PROTOCOL MILESTONE",3,"BASELINE","2013-01-01","2013-01-01",1
"522","CDISCPILOT01","DS","01-710-1060",2,NA,"PROTOCOL COMPLETED","COMPLETED","DISPOSITION EVENT",13,"WEEK 26","2013-07-05","2013-07-05",186
"523","CDISCPILOT01","DS","01-710-1060",3,NA,"FINAL LAB VISIT","FINAL LAB VISIT","OTHER EVENT",13,"WEEK 26","2013-07-05T14:40","2013-07-05",186
"524","CDISCPILOT01","DS","01-710-1070",1,NA,"RANDOMIZED","RANDOMIZED","PROTOCOL MILESTONE",3,"BASELINE","2012-09-08","2012-09-08",1
"525","CDISCPILOT01","DS","01-710-1070",2,NA,"FINAL LAB VISIT","FINAL LAB VISIT","OTHER EVENT",10,"WEEK 16","2012-12-28T11:55","2012-12-28",112
"526","CDISCPILOT01","DS","01-710-1070",3,"15","ADVERSE EVENT","ADVERSE EVENT","DISPOSITION EVENT",11,"WEEK 20","2013-02-23","2013-02-23",169
"527","CDISCPILOT01","DS","01-710-1077",1,NA,"RANDOMIZED","RANDOMIZED","PROTOCOL MILESTONE",3,"BASELINE","2013-11-17","2013-11-17",1
"528","CDISCPILOT01","DS","01-710-1077",2,NA,"PROTOCOL COMPLETED","COMPLETED","DISPOSITION EVENT",13,"WEEK 26","2014-05-18","2014-05-18",183
"529","CDISCPILOT01","DS","01-710-1077",3,NA,"FINAL LAB VISIT","FINAL LAB VISIT","OTHER EVENT",13,"WEEK 26","2014-05-18T09:50","2014-05-18",183
"530","CDISCPILOT01","DS","01-710-1078",1,NA,"RANDOMIZED","RANDOMIZED","PROTOCOL MILESTONE",3,"BASELINE","2013-09-17","2013-09-17",1
"531","CDISCPILOT01","DS","01-710-1078",2,NA,"PROTOCOL COMPLETED","COMPLETED","DISPOSITION EVENT",13,"WEEK 26","2014-03-23","2014-03-23",188
"532","CDISCPILOT01","DS","01-710-1078",3,NA,"FINAL LAB VISIT","FINAL LAB VISIT","OTHER EVENT",13,"WEEK 26","2014-03-23T16:00","2014-03-23",188
"533","CDISCPILOT01","DS","01-710-1083",1,NA,"FINAL LAB VISIT","FINAL LAB VISIT","OTHER EVENT",1,"SCREENING 1","2013-07-09T16:35","2013-07-09",-13
"534","CDISCPILOT01","DS","01-710-1083",2,NA,"RANDOMIZED","RANDOMIZED","PROTOCOL MILESTONE",3,"BASELINE","2013-07-22","2013-07-22",1
"535","CDISCPILOT01","DS","01-710-1083",3," 6","DEATH","DEATH","DISPOSITION EVENT",4,"WEEK 2","2013-08-03","2013-08-02",12
"536","CDISCPILOT01","DS","01-710-1129",1,NA,"SCREEN FAILURE","SCREEN FAILURE","DISPOSITION EVENT",1,"SCREENING 1","2013-03-05","2013-03-05",NA
"537","CDISCPILOT01","DS","01-710-1137",1,NA,"RANDOMIZED","RANDOMIZED","PROTOCOL MILESTONE",3,"BASELINE","2013-10-11","2013-10-11",1
"538","CDISCPILOT01","DS","01-710-1137",2," 7","ADVERSE EVENT","ADVERSE EVENT","DISPOSITION EVENT",7,"WEEK 6","2013-11-13","2013-11-13",34
"539","CDISCPILOT01","DS","01-710-1137",3,NA,"FINAL LAB VISIT","FINAL LAB VISIT","OTHER EVENT",7,"WEEK 6","2013-11-13T11:30","2013-11-13",34
"540","CDISCPILOT01","DS","01-710-1142",1,NA,"RANDOMIZED","RANDOMIZED","PROTOCOL MILESTONE",3,"BASELINE","2012-10-02","2012-10-02",1
"541","CDISCPILOT01","DS","01-710-1142",2," 9","ADVERSE EVENT","ADVERSE EVENT","DISPOSITION EVENT",5,"WEEK 4","2012-10-23","2012-10-23",22
"542","CDISCPILOT01","DS","01-710-1142",3,NA,"FINAL LAB VISIT","FINAL LAB VISIT","OTHER EVENT",5,"WEEK 4","2012-10-23T15:20","2012-10-23",22
"543","CDISCPILOT01","DS","01-710-1149",1,NA,"SCREEN FAILURE","SCREEN FAILURE","DISPOSITION EVENT",1,"SCREENING 1","2013-11-16","2013-11-16",NA
"544","CDISCPILOT01","DS","01-710-1154",1,NA,"RANDOMIZED","RANDOMIZED","PROTOCOL MILESTONE",3,"BASELINE","2014-03-29","2014-03-29",1
"545","CDISCPILOT01","DS","01-710-1154",2," 4","ADVERSE EVENT","ADVERSE EVENT","DISPOSITION EVENT",7,"WEEK 6","2014-05-09","2014-05-09",42
"546","CDISCPILOT01","DS","01-710-1154",3,NA,"FINAL LAB VISIT","FINAL LAB VISIT","OTHER EVENT",7,"WEEK 6","2014-05-09T10:55","2014-05-09",42
"547","CDISCPILOT01","DS","01-710-1166",1,NA,"RANDOMIZED","RANDOMIZED","PROTOCOL MILESTONE",3,"BASELINE","2012-11-30","2012-11-30",1
"548","CDISCPILOT01","DS","01-710-1166",2,"10","ADVERSE EVENT","ADVERSE EVENT","DISPOSITION EVENT",10,"WEEK 16","2013-03-30","2013-03-30",121
"549","CDISCPILOT01","DS","01-710-1166",3,NA,"FINAL LAB VISIT","FINAL LAB VISIT","OTHER EVENT",10,"WEEK 16","2013-03-30T09:35","2013-03-30",121
"550","CDISCPILOT01","DS","01-710-1183",1,NA,"RANDOMIZED","RANDOMIZED","PROTOCOL MILESTONE",3,"BASELINE","2013-11-16","2013-11-16",1
"551","CDISCPILOT01","DS","01-710-1183",2,NA,"PROTOCOL COMPLETED","COMPLETED","DISPOSITION EVENT",13,"WEEK 26","2014-05-17","2014-05-17",183
"552","CDISCPILOT01","DS","01-710-1183",3,NA,"FINAL LAB VISIT","FINAL LAB VISIT","OTHER EVENT",13,"WEEK 26","2014-05-17T11:55","2014-05-17",183
"553","CDISCPILOT01","DS","01-710-1187",1,NA,"RANDOMIZED","RANDOMIZED","PROTOCOL MILESTONE",3,"BASELINE","2012-11-10","2012-11-10",1
"554","CDISCPILOT01","DS","01-710-1187",2,NA,"PROTOCOL COMPLETED","COMPLETED","DISPOSITION EVENT",13,"WEEK 26","2013-05-12","2013-05-12",184
"555","CDISCPILOT01","DS","01-710-1187",3,NA,"FINAL LAB VISIT","FINAL LAB VISIT","OTHER EVENT",13,"WEEK 26","2013-05-12T11:05","2013-05-12",184
"556","CDISCPILOT01","DS","01-710-1235",1,NA,"RANDOMIZED","RANDOMIZED","PROTOCOL MILESTONE",3,"BASELINE","2012-09-26","2012-09-26",1
"557","CDISCPILOT01","DS","01-710-1235",2,NA,"PROTOCOL COMPLETED","COMPLETED","DISPOSITION EVENT",13,"WEEK 26","2013-03-27","2013-03-27",183
"558","CDISCPILOT01","DS","01-710-1235",3,NA,"FINAL LAB VISIT","FINAL LAB VISIT","OTHER EVENT",13,"WEEK 26","2013-03-27T09:35","2013-03-27",183
"559","CDISCPILOT01","DS","01-710-1249",1,NA,"RANDOMIZED","RANDOMIZED","PROTOCOL MILESTONE",3,"BASELINE","2013-12-28","2013-12-28",1
"560","CDISCPILOT01","DS","01-710-1249",2,NA,"PROTOCOL COMPLETED","COMPLETED","DISPOSITION EVENT",13,"WEEK 26","2014-06-28","2014-06-28",183
"561","CDISCPILOT01","DS","01-710-1249",3,NA,"FINAL LAB VISIT","FINAL LAB VISIT","OTHER EVENT",13,"WEEK 26","2014-06-28T11:05","2014-06-28",183
"562","CDISCPILOT01","DS","01-710-1257",1,NA,"SCREEN FAILURE","SCREEN FAILURE","DISPOSITION EVENT",1,"SCREENING 1","2013-11-29","2013-11-29",NA
"563","CDISCPILOT01","DS","01-710-1264",1,NA,"RANDOMIZED","RANDOMIZED","PROTOCOL MILESTONE",3,"BASELINE","2013-06-13","2013-06-13",1
"564","CDISCPILOT01","DS","01-710-1264",2,"16","ADVERSE EVENT","ADVERSE EVENT","DISPOSITION EVENT",11,"WEEK 20","2013-10-12","2013-10-12",122
"565","CDISCPILOT01","DS","01-710-1264",3,NA,"FINAL LAB VISIT","FINAL LAB VISIT","OTHER EVENT",11,"WEEK 20","2013-10-12T12:18","2013-10-12",122
"566","CDISCPILOT01","DS","01-710-1270",1,NA,"RANDOMIZED","RANDOMIZED","PROTOCOL MILESTONE",3,"BASELINE","2014-02-12","2014-02-12",1
"567","CDISCPILOT01","DS","01-710-1270",2," 5","ADVERSE EVENT","ADVERSE EVENT","DISPOSITION EVENT",4,"WEEK 2","2014-03-01","2014-03-01",18
"568","CDISCPILOT01","DS","01-710-1270",3,NA,"FINAL LAB VISIT","FINAL LAB VISIT","OTHER EVENT",4,"WEEK 2","2014-03-01T12:05","2014-03-01",18
"569","CDISCPILOT01","DS","01-710-1271",1,NA,"RANDOMIZED","RANDOMIZED","PROTOCOL MILESTONE",3,"BASELINE","2012-09-27","2012-09-27",1
"570","CDISCPILOT01","DS","01-710-1271",2,NA,"FINAL LAB VISIT","FINAL LAB VISIT","OTHER EVENT",7,"WEEK 6","2012-11-08T16:30","2012-11-08",43
"571","CDISCPILOT01","DS","01-710-1271",3,"12","ADVERSE EVENT","ADVERSE EVENT","DISPOSITION EVENT",8,"WEEK 8","2012-12-02","2012-12-02",67
"572","CDISCPILOT01","DS","01-710-1278",1,NA,"RANDOMIZED","RANDOMIZED","PROTOCOL MILESTONE",3,"BASELINE","2012-12-24","2012-12-24",1
"573","CDISCPILOT01","DS","01-710-1278",2,"10","ADVERSE EVENT","ADVERSE EVENT","DISPOSITION EVENT",9,"WEEK 12","2013-03-03","2013-03-03",70
"574","CDISCPILOT01","DS","01-710-1278",3,NA,"FINAL LAB VISIT","FINAL LAB VISIT","OTHER EVENT",9,"WEEK 12","2013-03-07T11:45","2013-03-07",74
"575","CDISCPILOT01","DS","01-710-1300",1,NA,"RANDOMIZED","RANDOMIZED","PROTOCOL MILESTONE",3,"BASELINE","2012-12-15","2012-12-15",1
"576","CDISCPILOT01","DS","01-710-1300",2," 4","ADVERSE EVENT","ADVERSE EVENT","DISPOSITION EVENT",9,"WEEK 12","2013-02-19","2013-02-19",67
"577","CDISCPILOT01","DS","01-710-1300",3,NA,"FINAL LAB VISIT","FINAL LAB VISIT","OTHER EVENT",9,"WEEK 12","2013-02-19T15:50","2013-02-19",67
"578","CDISCPILOT01","DS","01-710-1314",1,NA,"RANDOMIZED","RANDOMIZED","PROTOCOL MILESTONE",3,"BASELINE","2013-04-24","2013-04-24",1
"579","CDISCPILOT01","DS","01-710-1314",2,NA,"FINAL LAB VISIT","FINAL LAB VISIT","OTHER EVENT",5,"WEEK 4","2013-05-23T14:45","2013-05-23",30
"580","CDISCPILOT01","DS","01-710-1314",3,NA,"PATIENT REFUSES TO CONTINUE","WITHDRAWAL BY SUBJECT","DISPOSITION EVENT",6,"AMBUL ECG REMOVAL","2013-05-25","2013-05-25",32
"581","CDISCPILOT01","DS","01-710-1315",1,NA,"RANDOMIZED","RANDOMIZED","PROTOCOL MILESTONE",3,"BASELINE","2013-02-27","2013-02-27",1
"582","CDISCPILOT01","DS","01-710-1315",2," 3","ADVERSE EVENT","ADVERSE EVENT","DISPOSITION EVENT",11,"WEEK 20","2013-07-16","2013-07-16",140
"583","CDISCPILOT01","DS","01-710-1315",3,NA,"FINAL LAB VISIT","FINAL LAB VISIT","OTHER EVENT",11,"WEEK 20","2013-07-16T12:05","2013-07-16",140
"584","CDISCPILOT01","DS","01-710-1337",1,NA,"SCREEN FAILURE","SCREEN FAILURE","DISPOSITION EVENT",1,"SCREENING 1","2013-12-30","2013-12-30",NA
"585","CDISCPILOT01","DS","01-710-1354",1,NA,"RANDOMIZED","RANDOMIZED","PROTOCOL MILESTONE",3,"BASELINE","2012-11-11","2012-11-11",1
"586","CDISCPILOT01","DS","01-710-1354",2,NA,"PROTOCOL COMPLETED","COMPLETED","DISPOSITION EVENT",13,"WEEK 26","2013-05-01","2013-05-01",172
"587","CDISCPILOT01","DS","01-710-1354",3,NA,"FINAL LAB VISIT","FINAL LAB VISIT","OTHER EVENT",13,"WEEK 26","2013-05-01T14:05","2013-05-01",172
"588","CDISCPILOT01","DS","01-710-1358",1,NA,"RANDOMIZED","RANDOMIZED","PROTOCOL MILESTONE",3,"BASELINE","2012-09-17","2012-09-17",1
"589","CDISCPILOT01","DS","01-710-1358",2,NA,"FINAL LAB VISIT","FINAL LAB VISIT","OTHER EVENT",11,"WEEK 20","2013-02-06T11:25","2013-02-06",143
"590","CDISCPILOT01","DS","01-710-1358",3,NA,"CAREGIVER WAS HOSPITALIZED;SEE COMMENTS","WITHDRAWAL BY SUBJECT","DISPOSITION EVENT",12,"WEEK 24","2013-03-12","2013-03-12",177
"591","CDISCPILOT01","DS","01-710-1368",1,NA,"RANDOMIZED","RANDOMIZED","PROTOCOL MILESTONE",3,"BASELINE","2013-10-23","2013-10-23",1
"592","CDISCPILOT01","DS","01-710-1368",2,NA,"PROTOCOL COMPLETED","COMPLETED","DISPOSITION EVENT",13,"WEEK 26","2014-04-24","2014-04-24",184
"593","CDISCPILOT01","DS","01-710-1368",3,NA,"FINAL LAB VISIT","FINAL LAB VISIT","OTHER EVENT",13,"WEEK 26","2014-04-24T10:10","2014-04-24",184
"594","CDISCPILOT01","DS","01-710-1376",1,NA,"SCREEN FAILURE","SCREEN FAILURE","DISPOSITION EVENT",1,"SCREENING 1","2014-04-21","2014-04-21",NA
"595","CDISCPILOT01","DS","01-710-1380",1,NA,"SCREEN FAILURE","SCREEN FAILURE","DISPOSITION EVENT",1,"SCREENING 1","2013-06-02","2013-06-02",NA
"596","CDISCPILOT01","DS","01-710-1385",1,NA,"RANDOMIZED","RANDOMIZED","PROTOCOL MILESTONE",3,"BASELINE","2012-10-29","2012-10-29",1
"597","CDISCPILOT01","DS","01-710-1385",2,"15","ADVERSE EVENT","ADVERSE EVENT","DISPOSITION EVENT",10,"WEEK 16","2013-02-18","2013-02-18",113
"598","CDISCPILOT01","DS","01-710-1385",3,NA,"FINAL LAB VISIT","FINAL LAB VISIT","OTHER EVENT",10,"WEEK 16","2013-02-18T13:40","2013-02-18",113
"599","CDISCPILOT01","DS","01-710-1408",1,NA,"RANDOMIZED","RANDOMIZED","PROTOCOL MILESTONE",3,"BASELINE","2013-01-05","2013-01-05",1
"600","CDISCPILOT01","DS","01-710-1408",2,NA,"PROTOCOL COMPLETED","COMPLETED","DISPOSITION EVENT",13,"WEEK 26","2013-07-12","2013-07-12",189
"601","CDISCPILOT01","DS","01-710-1408",3,NA,"FINAL LAB VISIT","FINAL LAB VISIT","OTHER EVENT",13,"WEEK 26","2013-07-12T14:35","2013-07-12",189
"602","CDISCPILOT01","DS","01-710-1443",1,NA,"SCREEN FAILURE","SCREEN FAILURE","DISPOSITION EVENT",1,"SCREENING 1","2013-12-13","2013-12-13",NA
"603","CDISCPILOT01","DS","01-711-1012",1,NA,"RANDOMIZED","RANDOMIZED","PROTOCOL MILESTONE",3,"BASELINE","2013-04-03","2013-04-03",1
"604","CDISCPILOT01","DS","01-711-1012",2," 9","ADVERSE EVENT","ADVERSE EVENT","DISPOSITION EVENT",5,"WEEK 4","2013-05-02","2013-05-02",30
"605","CDISCPILOT01","DS","01-711-1012",3,NA,"FINAL LAB VISIT","FINAL LAB VISIT","OTHER EVENT",5,"WEEK 4","2013-05-02T09:40","2013-05-02",30
"606","CDISCPILOT01","DS","01-711-1012",4,NA,"FINAL RETRIEVAL VISIT","FINAL RETRIEVAL VISIT","OTHER EVENT",201,"RETRIEVAL","2013-09-18","2013-09-18",169
"607","CDISCPILOT01","DS","01-711-1022",1,NA,"SCREEN FAILURE","SCREEN FAILURE","DISPOSITION EVENT",1,"SCREENING 1","2014-03-17","2014-03-17",NA
"608","CDISCPILOT01","DS","01-711-1036",1,NA,"RANDOMIZED","RANDOMIZED","PROTOCOL MILESTONE",3,"BASELINE","2012-07-29","2012-07-29",1
"609","CDISCPILOT01","DS","01-711-1036",2,NA,"PROTOCOL COMPLETED","COMPLETED","DISPOSITION EVENT",13,"WEEK 26","2013-02-10","2013-02-10",197
"610","CDISCPILOT01","DS","01-711-1036",3,NA,"FINAL LAB VISIT","FINAL LAB VISIT","OTHER EVENT",13,"WEEK 26","2013-02-10T10:25","2013-02-10",197
"611","CDISCPILOT01","DS","01-711-1143",1,NA,"RANDOMIZED","RANDOMIZED","PROTOCOL MILESTONE",3,"BASELINE","2013-04-03","2013-04-03",1
"612","CDISCPILOT01","DS","01-711-1143",2,"25","ADVERSE EVENT","ADVERSE EVENT","DISPOSITION EVENT",9,"WEEK 12","2013-06-01","2013-06-01",60
"613","CDISCPILOT01","DS","01-711-1143",3,NA,"FINAL LAB VISIT","FINAL LAB VISIT","OTHER EVENT",9,"WEEK 12","2013-06-01T13:11","2013-06-01",60
"614","CDISCPILOT01","DS","01-711-1143",4,NA,"FINAL RETRIEVAL VISIT","FINAL RETRIEVAL VISIT","OTHER EVENT",201,"RETRIEVAL","2013-09-22","2013-09-22",173
"615","CDISCPILOT01","DS","01-711-1163",1,NA,"SCREEN FAILURE","SCREEN FAILURE","DISPOSITION EVENT",1,"SCREENING 1","2012-11-08","2012-11-08",NA
"616","CDISCPILOT01","DS","01-711-1173",1,NA,"SCREEN FAILURE","SCREEN FAILURE","DISPOSITION EVENT",1,"SCREENING 1","2012-10-04","2012-10-04",NA
"617","CDISCPILOT01","DS","01-711-1226",1,NA,"SCREEN FAILURE","SCREEN FAILURE","DISPOSITION EVENT",1,"SCREENING 1","2013-10-24","2013-10-24",NA
"618","CDISCPILOT01","DS","01-711-1251",1,NA,"SCREEN FAILURE","SCREEN FAILURE","DISPOSITION EVENT",1,"SCREENING 1","2014-02-28","2014-02-28",NA
"619","CDISCPILOT01","DS","01-711-1283",1,NA,"SCREEN FAILURE","SCREEN FAILURE","DISPOSITION EVENT",1,"SCREENING 1","2014-03-27","2014-03-27",NA
"620","CDISCPILOT01","DS","01-711-1284",1,NA,"SCREEN FAILURE","SCREEN FAILURE","DISPOSITION EVENT",1,"SCREENING 1","2013-08-05","2013-08-05",NA
"621","CDISCPILOT01","DS","01-711-1290",1,NA,"SCREEN FAILURE","SCREEN FAILURE","DISPOSITION EVENT",1,"SCREENING 1","2013-12-20","2013-12-20",NA
"622","CDISCPILOT01","DS","01-711-1433",1,NA,"RANDOMIZED","RANDOMIZED","PROTOCOL MILESTONE",3,"BASELINE","2013-01-27","2013-01-27",1
"623","CDISCPILOT01","DS","01-711-1433",2,"15","ADVERSE EVENT","ADVERSE EVENT","DISPOSITION EVENT",4,"WEEK 2","2013-02-06","2013-02-06",11
"624","CDISCPILOT01","DS","01-711-1433",3,NA,"FINAL LAB VISIT","FINAL LAB VISIT","OTHER EVENT",4,"WEEK 2","2013-02-06T10:52","2013-02-06",11
"625","CDISCPILOT01","DS","01-713-1043",1,NA,"RANDOMIZED","RANDOMIZED","PROTOCOL MILESTONE",3,"BASELINE","2013-09-15","2013-09-15",1
"626","CDISCPILOT01","DS","01-713-1043",2,NA,"PROTOCOL COMPLETED","COMPLETED","DISPOSITION EVENT",13,"WEEK 26","2014-03-24","2014-03-24",191
"627","CDISCPILOT01","DS","01-713-1043",3,NA,"FINAL LAB VISIT","FINAL LAB VISIT","OTHER EVENT",13,"WEEK 26","2014-03-24T14:30","2014-03-24",191
"628","CDISCPILOT01","DS","01-713-1073",1,NA,"RANDOMIZED","RANDOMIZED","PROTOCOL MILESTONE",3,"BASELINE","2014-03-30","2014-03-30",1
"629","CDISCPILOT01","DS","01-713-1073",2,NA,"PROTOCOL COMPLETED","COMPLETED","DISPOSITION EVENT",13,"WEEK 26","2014-10-05","2014-10-05",190
"630","CDISCPILOT01","DS","01-713-1073",3,NA,"FINAL LAB VISIT","FINAL LAB VISIT","OTHER EVENT",13,"WEEK 26","2014-10-05T10:30","2014-10-05",190
"631","CDISCPILOT01","DS","01-713-1106",1,NA,"RANDOMIZED","RANDOMIZED","PROTOCOL MILESTONE",3,"BASELINE","2012-10-31","2012-10-31",1
"632","CDISCPILOT01","DS","01-713-1106",2,NA,"PROTOCOL COMPLETED","COMPLETED","DISPOSITION EVENT",13,"WEEK 26","2013-05-06","2013-05-06",188
"633","CDISCPILOT01","DS","01-713-1106",3,NA,"FINAL LAB VISIT","FINAL LAB VISIT","OTHER EVENT",13,"WEEK 26","2013-05-06T11:25","2013-05-06",188
"634","CDISCPILOT01","DS","01-713-1141",1,NA,"RANDOMIZED","RANDOMIZED","PROTOCOL MILESTONE",3,"BASELINE","2013-05-31","2013-05-31",1
"635","CDISCPILOT01","DS","01-713-1141",2," 6","ADVERSE EVENT","ADVERSE EVENT","DISPOSITION EVENT",7,"WEEK 6","2013-08-06","2013-08-06",68
"636","CDISCPILOT01","DS","01-713-1141",3,NA,"FINAL LAB VISIT","FINAL LAB VISIT","OTHER EVENT",7,"WEEK 6","2013-08-06T12:00","2013-08-06",68
"637","CDISCPILOT01","DS","01-713-1179",1,NA,"RANDOMIZED","RANDOMIZED","PROTOCOL MILESTONE",3,"BASELINE","2013-08-09","2013-08-09",1
"638","CDISCPILOT01","DS","01-713-1179",2,NA,"PROTOCOL COMPLETED","COMPLETED","DISPOSITION EVENT",13,"WEEK 26","2014-02-05","2014-02-05",181
"639","CDISCPILOT01","DS","01-713-1179",3,NA,"FINAL LAB VISIT","FINAL LAB VISIT","OTHER EVENT",13,"WEEK 26","2014-02-05T15:15","2014-02-05",181
"640","CDISCPILOT01","DS","01-713-1209",1,NA,"RANDOMIZED","RANDOMIZED","PROTOCOL MILESTONE",3,"BASELINE","2013-05-27","2013-05-27",1
"641","CDISCPILOT01","DS","01-713-1209",2,NA,"PROTOCOL COMPLETED","COMPLETED","DISPOSITION EVENT",13,"WEEK 26","2013-11-22","2013-11-22",180
"642","CDISCPILOT01","DS","01-713-1209",3,NA,"FINAL LAB VISIT","FINAL LAB VISIT","OTHER EVENT",13,"WEEK 26","2013-11-22T10:05","2013-11-22",180
"643","CDISCPILOT01","DS","01-713-1256",1,NA,"RANDOMIZED","RANDOMIZED","PROTOCOL MILESTONE",3,"BASELINE","2012-09-19","2012-09-19",1
"644","CDISCPILOT01","DS","01-713-1256",2,NA,"PROTOCOL COMPLETED","COMPLETED","DISPOSITION EVENT",13,"WEEK 26","2013-03-25","2013-03-25",188
"645","CDISCPILOT01","DS","01-713-1256",3,NA,"FINAL LAB VISIT","FINAL LAB VISIT","OTHER EVENT",13,"WEEK 26","2013-03-25T10:30","2013-03-25",188
"646","CDISCPILOT01","DS","01-713-1269",1,NA,"RANDOMIZED","RANDOMIZED","PROTOCOL MILESTONE",3,"BASELINE","2014-01-27","2014-01-27",1
"647","CDISCPILOT01","DS","01-713-1269",2,NA,"PROTOCOL COMPLETED","COMPLETED","DISPOSITION EVENT",13,"WEEK 26","2014-07-28","2014-07-28",183
"648","CDISCPILOT01","DS","01-713-1269",3,NA,"FINAL LAB VISIT","FINAL LAB VISIT","OTHER EVENT",13,"WEEK 26","2014-07-28T14:00","2014-07-28",183
"649","CDISCPILOT01","DS","01-713-1448",1,NA,"RANDOMIZED","RANDOMIZED","PROTOCOL MILESTONE",3,"BASELINE","2014-01-19","2014-01-19",1
"650","CDISCPILOT01","DS","01-713-1448",2," 8","ADVERSE EVENT","ADVERSE EVENT","DISPOSITION EVENT",10,"WEEK 16","2014-05-17","2014-05-17",119
"651","CDISCPILOT01","DS","01-713-1448",3,NA,"FINAL LAB VISIT","FINAL LAB VISIT","OTHER EVENT",10,"WEEK 16","2014-05-17T11:00","2014-05-17",119
"652","CDISCPILOT01","DS","01-713-1448",4,NA,"FINAL RETRIEVAL VISIT","FINAL RETRIEVAL VISIT","OTHER EVENT",201,"RETRIEVAL","2014-07-27","2014-07-27",190
"653","CDISCPILOT01","DS","01-714-1035",1,NA,"RANDOMIZED","RANDOMIZED","PROTOCOL MILESTONE",3,"BASELINE","2014-04-17","2014-04-17",1
"654","CDISCPILOT01","DS","01-714-1035",2,NA,"PROTOCOL COMPLETED","COMPLETED","DISPOSITION EVENT",13,"WEEK 26","2014-10-16","2014-10-16",183
"655","CDISCPILOT01","DS","01-714-1035",3,NA,"FINAL LAB VISIT","FINAL LAB VISIT","OTHER EVENT",13,"WEEK 26","2014-10-16T12:00","2014-10-16",183
"656","CDISCPILOT01","DS","01-714-1068",1,NA,"RANDOMIZED","RANDOMIZED","PROTOCOL MILESTONE",3,"BASELINE","2013-08-08","2013-08-08",1
"657","CDISCPILOT01","DS","01-714-1068",2," 9","ADVERSE EVENT","ADVERSE EVENT","DISPOSITION EVENT",9,"WEEK 12","2013-10-16","2013-10-16",70
"658","CDISCPILOT01","DS","01-714-1068",3,NA,"FINAL LAB VISIT","FINAL LAB VISIT","OTHER EVENT",9,"WEEK 12","2013-10-16T15:10","2013-10-16",70
"659","CDISCPILOT01","DS","01-714-1195",1,NA,"RANDOMIZED","RANDOMIZED","PROTOCOL MILESTONE",3,"BASELINE","2013-04-26","2013-04-26",1
"660","CDISCPILOT01","DS","01-714-1195",2,NA,"PROTOCOL COMPLETED","COMPLETED","DISPOSITION EVENT",13,"WEEK 26","2013-10-23","2013-10-23",181
"661","CDISCPILOT01","DS","01-714-1195",3,NA,"FINAL LAB VISIT","FINAL LAB VISIT","OTHER EVENT",13,"WEEK 26","2013-10-23T10:55","2013-10-23",181
"662","CDISCPILOT01","DS","01-714-1288",1,NA,"RANDOMIZED","RANDOMIZED","PROTOCOL MILESTONE",3,"BASELINE","2013-12-04","2013-12-04",1
"663","CDISCPILOT01","DS","01-714-1288",2,NA,"PROTOCOL COMPLETED","COMPLETED","DISPOSITION EVENT",13,"WEEK 26","2014-06-17","2014-06-17",196
"664","CDISCPILOT01","DS","01-714-1288",3,NA,"FINAL LAB VISIT","FINAL LAB VISIT","OTHER EVENT",13,"WEEK 26","2014-06-17T13:00","2014-06-17",196
"665","CDISCPILOT01","DS","01-714-1375",1,NA,"RANDOMIZED","RANDOMIZED","PROTOCOL MILESTONE",3,"BASELINE","2013-02-26","2013-02-26",1
"666","CDISCPILOT01","DS","01-714-1375",2,NA,"PROTOCOL COMPLETED","COMPLETED","DISPOSITION EVENT",13,"WEEK 26","2013-09-07","2013-09-07",194
"667","CDISCPILOT01","DS","01-714-1375",3,NA,"FINAL LAB VISIT","FINAL LAB VISIT","OTHER EVENT",13,"WEEK 26","2013-09-07T13:58","2013-09-07",194
"668","CDISCPILOT01","DS","01-714-1425",1,NA,"RANDOMIZED","RANDOMIZED","PROTOCOL MILESTONE",3,"BASELINE","2013-08-15","2013-08-15",1
"669","CDISCPILOT01","DS","01-714-1425",2,NA,"SPONSOR DECISION (STUDY OR PATIENT DISCONTINUED BY THE SPONSOR)","STUDY TERMINATED BY SPONSOR","DISPOSITION EVENT",4,"WEEK 2","2013-08-22","2013-08-22",8
"670","CDISCPILOT01","DS","01-714-1425",3,NA,"FINAL LAB VISIT","FINAL LAB VISIT","OTHER EVENT",4,"WEEK 2","2013-08-22T14:55","2013-08-22",8
"671","CDISCPILOT01","DS","01-715-1085",1,NA,"RANDOMIZED","RANDOMIZED","PROTOCOL MILESTONE",3,"BASELINE","2013-02-16","2013-02-16",1
"672","CDISCPILOT01","DS","01-715-1085",2,NA,"PROTOCOL COMPLETED","COMPLETED","DISPOSITION EVENT",13,"WEEK 26","2013-08-18","2013-08-18",184
"673","CDISCPILOT01","DS","01-715-1085",3,NA,"FINAL LAB VISIT","FINAL LAB VISIT","OTHER EVENT",13,"WEEK 26","2013-08-18T10:22","2013-08-18",184
"674","CDISCPILOT01","DS","01-715-1107",1,NA,"RANDOMIZED","RANDOMIZED","PROTOCOL MILESTONE",3,"BASELINE","2013-02-26","2013-02-26",1
"675","CDISCPILOT01","DS","01-715-1107",2," 1","ADVERSE EVENT","ADVERSE EVENT","DISPOSITION EVENT",9,"WEEK 12","2013-05-13","2013-05-13",77
"676","CDISCPILOT01","DS","01-715-1107",3,NA,"FINAL LAB VISIT","FINAL LAB VISIT","OTHER EVENT",201,"RETRIEVAL","2013-08-14T09:52","2013-08-14",170
"677","CDISCPILOT01","DS","01-715-1107",4,NA,"FINAL RETRIEVAL VISIT","FINAL RETRIEVAL VISIT","OTHER EVENT",201,"RETRIEVAL","2013-08-14","2013-08-14",170
"678","CDISCPILOT01","DS","01-715-1134",1,NA,"SCREEN FAILURE","SCREEN FAILURE","DISPOSITION EVENT",1,"SCREENING 1","2014-04-17","2014-04-17",NA
"679","CDISCPILOT01","DS","01-715-1155",1,NA,"RANDOMIZED","RANDOMIZED","PROTOCOL MILESTONE",3,"BASELINE","2013-12-13","2013-12-13",1
"680","CDISCPILOT01","DS","01-715-1155",2,NA,"FINAL LAB VISIT","FINAL LAB VISIT","OTHER EVENT",5,"WEEK 4","2014-01-10T08:45","2014-01-10",29
"681","CDISCPILOT01","DS","01-715-1155",3,NA,"CAREGIVER WITHDREW FROM STUDY","WITHDRAWAL BY SUBJECT","DISPOSITION EVENT",7,"WEEK 6","2014-04-26","2014-04-26",135
"682","CDISCPILOT01","DS","01-715-1207",1,NA,"RANDOMIZED","RANDOMIZED","PROTOCOL MILESTONE",3,"BASELINE","2012-11-18","2012-11-18",1
"683","CDISCPILOT01","DS","01-715-1207",2,NA,"PROTOCOL COMPLETED","COMPLETED","DISPOSITION EVENT",13,"WEEK 26","2013-06-01","2013-06-01",196
"684","CDISCPILOT01","DS","01-715-1207",3,NA,"FINAL LAB VISIT","FINAL LAB VISIT","OTHER EVENT",13,"WEEK 26","2013-06-01T09:30","2013-06-01",196
"685","CDISCPILOT01","DS","01-715-1225",1,NA,"SCREEN FAILURE","SCREEN FAILURE","DISPOSITION EVENT",1,"SCREENING 1","2013-01-22","2013-01-22",NA
"686","CDISCPILOT01","DS","01-715-1319",1,NA,"RANDOMIZED","RANDOMIZED","PROTOCOL MILESTONE",3,"BASELINE","2013-02-17","2013-02-17",1
"687","CDISCPILOT01","DS","01-715-1319",2,NA,"TOO MUCH TROUBLE FOR CAREGIVER","WITHDRAWAL BY SUBJECT","DISPOSITION EVENT",5,"WEEK 4","2013-03-18","2013-03-18",30
"688","CDISCPILOT01","DS","01-715-1319",3,NA,"FINAL LAB VISIT","FINAL LAB VISIT","OTHER EVENT",5,"WEEK 4","2013-03-18T10:28","2013-03-18",30
"689","CDISCPILOT01","DS","01-715-1321",1,NA,"RANDOMIZED","RANDOMIZED","PROTOCOL MILESTONE",3,"BASELINE","2014-02-11","2014-02-11",1
"690","CDISCPILOT01","DS","01-715-1321",2," 3","ADVERSE EVENT","ADVERSE EVENT","DISPOSITION EVENT",9,"WEEK 12","2014-04-22","2014-04-22",71
"691","CDISCPILOT01","DS","01-715-1321",3,NA,"FINAL LAB VISIT","FINAL LAB VISIT","OTHER EVENT",9,"WEEK 12","2014-04-22T11:12","2014-04-22",71
"692","CDISCPILOT01","DS","01-715-1333",1,NA,"SCREEN FAILURE","SCREEN FAILURE","DISPOSITION EVENT",1,"SCREENING 1","2013-06-03","2013-06-03",NA
"693","CDISCPILOT01","DS","01-715-1397",1,NA,"RANDOMIZED","RANDOMIZED","PROTOCOL MILESTONE",3,"BASELINE","2013-04-03","2013-04-03",1
"694","CDISCPILOT01","DS","01-715-1397",2,NA,"PROTOCOL COMPLETED","COMPLETED","DISPOSITION EVENT",13,"WEEK 26","2013-10-03","2013-10-03",184
"695","CDISCPILOT01","DS","01-715-1397",3,NA,"FINAL LAB VISIT","FINAL LAB VISIT","OTHER EVENT",13,"WEEK 26","2013-10-03T10:50","2013-10-03",184
"696","CDISCPILOT01","DS","01-715-1405",1,NA,"RANDOMIZED","RANDOMIZED","PROTOCOL MILESTONE",3,"BASELINE","2013-07-06","2013-07-06",1
"697","CDISCPILOT01","DS","01-715-1405",2," 3","ADVERSE EVENT","ADVERSE EVENT","DISPOSITION EVENT",4,"WEEK 2","2013-07-13","2013-07-13",8
"698","CDISCPILOT01","DS","01-715-1405",3,NA,"FINAL LAB VISIT","FINAL LAB VISIT","OTHER EVENT",4,"WEEK 2","2013-07-13T11:05","2013-07-13",8
"699","CDISCPILOT01","DS","01-715-1405",4,NA,"FINAL RETRIEVAL VISIT","FINAL RETRIEVAL VISIT","OTHER EVENT",201,"RETRIEVAL","2014-01-11","2014-01-11",190
"700","CDISCPILOT01","DS","01-715-1407",1,NA,"SCREEN FAILURE","SCREEN FAILURE","DISPOSITION EVENT",1,"SCREENING 1","2012-10-24","2012-10-24",NA
"701","CDISCPILOT01","DS","01-716-1003",1,NA,"SCREEN FAILURE","SCREEN FAILURE","DISPOSITION EVENT",1,"SCREENING 1","2014-03-29","2014-03-29",NA
"702","CDISCPILOT01","DS","01-716-1024",1,NA,"RANDOMIZED","RANDOMIZED","PROTOCOL MILESTONE",3,"BASELINE","2012-07-09","2012-07-09",1
"703","CDISCPILOT01","DS","01-716-1024",2,NA,"PROTOCOL COMPLETED","COMPLETED","DISPOSITION EVENT",13,"WEEK 26","2013-01-20","2013-01-20",196
"704","CDISCPILOT01","DS","01-716-1024",3,NA,"FINAL LAB VISIT","FINAL LAB VISIT","OTHER EVENT",13,"WEEK 26","2013-01-20T11:10","2013-01-20",196
"705","CDISCPILOT01","DS","01-716-1026",1,NA,"RANDOMIZED","RANDOMIZED","PROTOCOL MILESTONE",3,"BASELINE","2014-04-02","2014-04-02",1
"706","CDISCPILOT01","DS","01-716-1026",2,NA,"PROTOCOL COMPLETED","COMPLETED","DISPOSITION EVENT",13,"WEEK 26","2014-10-16","2014-10-16",198
"707","CDISCPILOT01","DS","01-716-1026",3,NA,"FINAL LAB VISIT","FINAL LAB VISIT","OTHER EVENT",13,"WEEK 26","2014-10-16T13:35","2014-10-16",198
"708","CDISCPILOT01","DS","01-716-1030",1,NA,"RANDOMIZED","RANDOMIZED","PROTOCOL MILESTONE",3,"BASELINE","2013-12-28","2013-12-28",1
"709","CDISCPILOT01","DS","01-716-1030",2,NA,"PT KEPT REMOVING PATCHES","WITHDRAWAL BY SUBJECT","DISPOSITION EVENT",4,"WEEK 2","2014-01-10","2014-01-10",14
"710","CDISCPILOT01","DS","01-716-1030",3,NA,"FINAL LAB VISIT","FINAL LAB VISIT","OTHER EVENT",4,"WEEK 2","2014-01-10T12:30","2014-01-10",14
"711","CDISCPILOT01","DS","01-716-1044",1,NA,"RANDOMIZED","RANDOMIZED","PROTOCOL MILESTONE",3,"BASELINE","2013-04-27","2013-04-27",1
"712","CDISCPILOT01","DS","01-716-1044",2,NA,"PROTOCOL COMPLETED","COMPLETED","DISPOSITION EVENT",13,"WEEK 26","2013-11-03","2013-11-03",191
"713","CDISCPILOT01","DS","01-716-1044",3,NA,"FINAL LAB VISIT","FINAL LAB VISIT","OTHER EVENT",13,"WEEK 26","2013-11-03T13:10","2013-11-03",191
"714","CDISCPILOT01","DS","01-716-1061",1,NA,"SCREEN FAILURE","SCREEN FAILURE","DISPOSITION EVENT",1,"SCREENING 1","2014-02-14","2014-02-14",NA
"715","CDISCPILOT01","DS","01-716-1063",1,NA,"RANDOMIZED","RANDOMIZED","PROTOCOL MILESTONE",3,"BASELINE","2013-05-09","2013-05-09",1
"716","CDISCPILOT01","DS","01-716-1063",2,"17","ADVERSE EVENT","ADVERSE EVENT","DISPOSITION EVENT",10,"WEEK 16","2013-08-28","2013-08-28",112
"717","CDISCPILOT01","DS","01-716-1063",3,NA,"FINAL LAB VISIT","FINAL LAB VISIT","OTHER EVENT",10,"WEEK 16","2013-08-28T15:20","2013-08-28",112
"718","CDISCPILOT01","DS","01-716-1063",4,NA,"FINAL RETRIEVAL VISIT","FINAL RETRIEVAL VISIT","OTHER EVENT",201,"RETRIEVAL","2013-11-17","2013-11-17",193
"719","CDISCPILOT01","DS","01-716-1071",1,NA,"RANDOMIZED","RANDOMIZED","PROTOCOL MILESTONE",3,"BASELINE","2013-06-08","2013-06-08",1
"720","CDISCPILOT01","DS","01-716-1071",2,"12","ADVERSE EVENT","ADVERSE EVENT","DISPOSITION EVENT",8,"WEEK 8","2013-08-01","2013-08-01",55
"721","CDISCPILOT01","DS","01-716-1071",3,NA,"FINAL LAB VISIT","FINAL LAB VISIT","OTHER EVENT",8,"WEEK 8","2013-08-01T09:30","2013-08-01",55
"722","CDISCPILOT01","DS","01-716-1071",4,NA,"FINAL RETRIEVAL VISIT","FINAL RETRIEVAL VISIT","OTHER EVENT",201,"RETRIEVAL","2013-12-16","2013-12-16",192
"723","CDISCPILOT01","DS","01-716-1094",1,NA,"RANDOMIZED","RANDOMIZED","PROTOCOL MILESTONE",3,"BASELINE","2012-12-19","2012-12-19",1
"724","CDISCPILOT01","DS","01-716-1094",2,"11","ADVERSE EVENT","ADVERSE EVENT","DISPOSITION EVENT",7,"WEEK 6","2013-01-26","2013-01-26",39
"725","CDISCPILOT01","DS","01-716-1094",3,NA,"FINAL LAB VISIT","FINAL LAB VISIT","OTHER EVENT",7,"WEEK 6","2013-01-26T11:20","2013-01-26",39
"726","CDISCPILOT01","DS","01-716-1094",4,NA,"FINAL RETRIEVAL VISIT","FINAL RETRIEVAL VISIT","OTHER EVENT",201,"RETRIEVAL","2013-06-22","2013-06-22",186
"727","CDISCPILOT01","DS","01-716-1103",1,NA,"RANDOMIZED","RANDOMIZED","PROTOCOL MILESTONE",3,"BASELINE","2014-03-20","2014-03-20",1
"728","CDISCPILOT01","DS","01-716-1103",2,NA,"PROTOCOL COMPLETED","COMPLETED","DISPOSITION EVENT",13,"WEEK 26","2014-09-20","2014-09-20",185
"729","CDISCPILOT01","DS","01-716-1103",3,NA,"FINAL LAB VISIT","FINAL LAB VISIT","OTHER EVENT",13,"WEEK 26","2014-09-20T12:10","2014-09-20",185
"730","CDISCPILOT01","DS","01-716-1108",1,NA,"RANDOMIZED","RANDOMIZED","PROTOCOL MILESTONE",3,"BASELINE","2013-02-12","2013-02-12",1
"731","CDISCPILOT01","DS","01-716-1108",2,NA,"PROTOCOL COMPLETED","COMPLETED","DISPOSITION EVENT",13,"WEEK 26","2013-08-10","2013-08-10",180
"732","CDISCPILOT01","DS","01-716-1108",3,NA,"FINAL LAB VISIT","FINAL LAB VISIT","OTHER EVENT",13,"WEEK 26","2013-08-10T09:55","2013-08-10",180
"733","CDISCPILOT01","DS","01-716-1151",1,NA,"RANDOMIZED","RANDOMIZED","PROTOCOL MILESTONE",3,"BASELINE","2013-02-01","2013-02-01",1
"734","CDISCPILOT01","DS","01-716-1151",2," 6","ADVERSE EVENT","ADVERSE EVENT","DISPOSITION EVENT",10,"WEEK 16","2013-06-07","2013-06-07",127
"735","CDISCPILOT01","DS","01-716-1151",3,NA,"FINAL LAB VISIT","FINAL LAB VISIT","OTHER EVENT",10,"WEEK 16","2013-06-07T11:55","2013-06-07",127
"736","CDISCPILOT01","DS","01-716-1151",4,NA,"FINAL RETRIEVAL VISIT","FINAL RETRIEVAL VISIT","OTHER EVENT",201,"RETRIEVAL","2013-08-13","2013-08-13",194
"737","CDISCPILOT01","DS","01-716-1157",1,NA,"RANDOMIZED","RANDOMIZED","PROTOCOL MILESTONE",3,"BASELINE","2013-10-02","2013-10-02",1
"738","CDISCPILOT01","DS","01-716-1157",2,NA,"PROTOCOL COMPLETED","COMPLETED","DISPOSITION EVENT",13,"WEEK 26","2014-04-05","2014-04-05",186
"739","CDISCPILOT01","DS","01-716-1157",3,NA,"FINAL LAB VISIT","FINAL LAB VISIT","OTHER EVENT",13,"WEEK 26","2014-04-05T11:10","2014-04-05",186
"740","CDISCPILOT01","DS","01-716-1160",1,NA,"RANDOMIZED","RANDOMIZED","PROTOCOL MILESTONE",3,"BASELINE","2013-04-05","2013-04-05",1
"741","CDISCPILOT01","DS","01-716-1160",2,NA,"PROTOCOL COMPLETED","COMPLETED","DISPOSITION EVENT",13,"WEEK 26","2013-10-11","2013-10-11",190
"742","CDISCPILOT01","DS","01-716-1160",3,NA,"FINAL LAB VISIT","FINAL LAB VISIT","OTHER EVENT",13,"WEEK 26","2013-10-11T13:30","2013-10-11",190
"743","CDISCPILOT01","DS","01-716-1167",1,NA,"RANDOMIZED","RANDOMIZED","PROTOCOL MILESTONE",3,"BASELINE","2012-10-08","2012-10-08",1
"744","CDISCPILOT01","DS","01-716-1167",2,NA,"PROTOCOL COMPLETED","COMPLETED","DISPOSITION EVENT",13,"WEEK 26","2013-04-13","2013-04-13",188
"745","CDISCPILOT01","DS","01-716-1167",3,NA,"FINAL LAB VISIT","FINAL LAB VISIT","OTHER EVENT",13,"WEEK 26","2013-04-13T11:10","2013-04-13",188
"746","CDISCPILOT01","DS","01-716-1177",1,NA,"RANDOMIZED","RANDOMIZED","PROTOCOL MILESTONE",3,"BASELINE","2014-09-02","2014-09-02",1
"747","CDISCPILOT01","DS","01-716-1177",2,NA,"PROTOCOL COMPLETED","COMPLETED","DISPOSITION EVENT",13,"WEEK 26","2015-03-05","2015-03-05",185
"748","CDISCPILOT01","DS","01-716-1177",3,NA,"FINAL LAB VISIT","FINAL LAB VISIT","OTHER EVENT",13,"WEEK 26","2015-03-05T14:40","2015-03-05",185
"749","CDISCPILOT01","DS","01-716-1189",1,NA,"RANDOMIZED","RANDOMIZED","PROTOCOL MILESTONE",3,"BASELINE","2012-10-09","2012-10-09",1
"750","CDISCPILOT01","DS","01-716-1189",2,"11","ADVERSE EVENT","ADVERSE EVENT","DISPOSITION EVENT",11,"WEEK 20","2013-03-03","2013-03-03",146
"751","CDISCPILOT01","DS","01-716-1189",3,NA,"FINAL LAB VISIT","FINAL LAB VISIT","OTHER EVENT",11,"WEEK 20","2013-03-03T10:45","2013-03-03",146
"752","CDISCPILOT01","DS","01-716-1189",4,NA,"FINAL RETRIEVAL VISIT","FINAL RETRIEVAL VISIT","OTHER EVENT",201,"RETRIEVAL","2013-04-08","2013-04-08",182
"753","CDISCPILOT01","DS","01-716-1229",1,NA,"RANDOMIZED","RANDOMIZED","PROTOCOL MILESTONE",3,"BASELINE","2013-02-20","2013-02-20",1
"754","CDISCPILOT01","DS","01-716-1229",2," 5","ADVERSE EVENT","ADVERSE EVENT","DISPOSITION EVENT",7,"WEEK 6","2013-04-02","2013-04-02",42
"755","CDISCPILOT01","DS","01-716-1229",3,NA,"FINAL LAB VISIT","FINAL LAB VISIT","OTHER EVENT",7,"WEEK 6","2013-04-02T11:15","2013-04-02",42
"756","CDISCPILOT01","DS","01-716-1244",1,NA,"SCREEN FAILURE","SCREEN FAILURE","DISPOSITION EVENT",1,"SCREENING 1","2013-08-15","2013-08-15",NA
"757","CDISCPILOT01","DS","01-716-1298",1,NA,"RANDOMIZED","RANDOMIZED","PROTOCOL MILESTONE",3,"BASELINE","2013-04-08","2013-04-08",1
"758","CDISCPILOT01","DS","01-716-1298",2,"12","ADVERSE EVENT","ADVERSE EVENT","DISPOSITION EVENT",9,"WEEK 12","2013-07-06","2013-07-06",90
"759","CDISCPILOT01","DS","01-716-1298",3,NA,"FINAL LAB VISIT","FINAL LAB VISIT","OTHER EVENT",9,"WEEK 12","2013-07-06T10:30","2013-07-06",90
"760","CDISCPILOT01","DS","01-716-1298",4,NA,"FINAL RETRIEVAL VISIT","FINAL RETRIEVAL VISIT","OTHER EVENT",201,"RETRIEVAL","2013-10-07","2013-10-07",183
"761","CDISCPILOT01","DS","01-716-1305",1,NA,"SCREEN FAILURE","SCREEN FAILURE","DISPOSITION EVENT",1,"SCREENING 1","2013-08-06","2013-08-06",NA
"762","CDISCPILOT01","DS","01-716-1308",1,NA,"RANDOMIZED","RANDOMIZED","PROTOCOL MILESTONE",3,"BASELINE","2013-08-28","2013-08-28",1
"763","CDISCPILOT01","DS","01-716-1308",2,NA,"PLACED IN NURSING HOME","WITHDRAWAL BY SUBJECT","DISPOSITION EVENT",7,"WEEK 6","2013-10-07","2013-10-07",41
"764","CDISCPILOT01","DS","01-716-1308",3,NA,"FINAL LAB VISIT","FINAL LAB VISIT","OTHER EVENT",7,"WEEK 6","2013-10-07T15:50","2013-10-07",41
"765","CDISCPILOT01","DS","01-716-1311",1,NA,"RANDOMIZED","RANDOMIZED","PROTOCOL MILESTONE",3,"BASELINE","2014-05-14","2014-05-14",1
"766","CDISCPILOT01","DS","01-716-1311",2,NA,"INSTITUTIONALIZED","WITHDRAWAL BY SUBJECT","DISPOSITION EVENT",11,"WEEK 20","2014-09-30","2014-09-30",140
"767","CDISCPILOT01","DS","01-716-1311",3,NA,"FINAL LAB VISIT","FINAL LAB VISIT","OTHER EVENT",11,"WEEK 20","2014-09-30T09:00","2014-09-30",140
"768","CDISCPILOT01","DS","01-716-1311",4,NA,"FINAL RETRIEVAL VISIT","FINAL RETRIEVAL VISIT","OTHER EVENT",201,"RETRIEVAL","2014-11-15","2014-11-15",186
"769","CDISCPILOT01","DS","01-716-1331",1,NA,"SCREEN FAILURE","SCREEN FAILURE","DISPOSITION EVENT",1,"SCREENING 1","2013-11-25","2013-11-25",NA
"770","CDISCPILOT01","DS","01-716-1364",1,NA,"RANDOMIZED","RANDOMIZED","PROTOCOL MILESTONE",3,"BASELINE","2013-07-04","2013-07-04",1
"771","CDISCPILOT01","DS","01-716-1364",2,NA,"PROTOCOL COMPLETED","COMPLETED","DISPOSITION EVENT",13,"WEEK 26","2014-01-09","2014-01-09",190
"772","CDISCPILOT01","DS","01-716-1364",3,NA,"FINAL LAB VISIT","FINAL LAB VISIT","OTHER EVENT",13,"WEEK 26","2014-01-09T15:30","2014-01-09",190
"773","CDISCPILOT01","DS","01-716-1373",1,NA,"RANDOMIZED","RANDOMIZED","PROTOCOL MILESTONE",3,"BASELINE","2012-12-14","2012-12-14",1
"774","CDISCPILOT01","DS","01-716-1373",2," 6","ADVERSE EVENT","ADVERSE EVENT","DISPOSITION EVENT",9,"WEEK 12","2013-02-28","2013-02-28",77
"775","CDISCPILOT01","DS","01-716-1373",3,NA,"FINAL LAB VISIT","FINAL LAB VISIT","OTHER EVENT",9,"WEEK 12","2013-02-28T10:23","2013-02-28",77
"776","CDISCPILOT01","DS","01-716-1418",1,NA,"RANDOMIZED","RANDOMIZED","PROTOCOL MILESTONE",3,"BASELINE","2013-05-05","2013-05-05",1
"777","CDISCPILOT01","DS","01-716-1418",2,NA,"PROTOCOL COMPLETED","COMPLETED","DISPOSITION EVENT",13,"WEEK 26","2013-11-20","2013-11-20",200
"778","CDISCPILOT01","DS","01-716-1418",3,NA,"FINAL LAB VISIT","FINAL LAB VISIT","OTHER EVENT",13,"WEEK 26","2013-11-20T11:44","2013-11-20",200
"779","CDISCPILOT01","DS","01-716-1441",1,NA,"RANDOMIZED","RANDOMIZED","PROTOCOL MILESTONE",3,"BASELINE","2014-01-22","2014-01-22",1
"780","CDISCPILOT01","DS","01-716-1441",2,NA,"PROTOCOL COMPLETED","COMPLETED","DISPOSITION EVENT",13,"WEEK 26","2014-07-22","2014-07-22",182
"781","CDISCPILOT01","DS","01-716-1441",3,NA,"FINAL LAB VISIT","FINAL LAB VISIT","OTHER EVENT",13,"WEEK 26","2014-07-22T10:00","2014-07-22",182
"782","CDISCPILOT01","DS","01-716-1447",1,NA,"RANDOMIZED","RANDOMIZED","PROTOCOL MILESTONE",3,"BASELINE","2013-12-16","2013-12-16",1
"783","CDISCPILOT01","DS","01-716-1447",2,NA,"PROTOCOL COMPLETED","COMPLETED","DISPOSITION EVENT",13,"WEEK 26","2014-06-17","2014-06-17",184
"784","CDISCPILOT01","DS","01-716-1447",3,NA,"FINAL LAB VISIT","FINAL LAB VISIT","OTHER EVENT",13,"WEEK 26","2014-06-17T12:00","2014-06-17",184
"785","CDISCPILOT01","DS","01-717-1004",1,NA,"RANDOMIZED","RANDOMIZED","PROTOCOL MILESTONE",3,"BASELINE","2014-01-14","2014-01-14",1
"786","CDISCPILOT01","DS","01-717-1004",2,NA,"PROTOCOL COMPLETED","COMPLETED","DISPOSITION EVENT",13,"WEEK 26","2014-07-16","2014-07-16",184
"787","CDISCPILOT01","DS","01-717-1004",3,NA,"FINAL LAB VISIT","FINAL LAB VISIT","OTHER EVENT",13,"WEEK 26","2014-07-16T13:21","2014-07-16",184
"788","CDISCPILOT01","DS","01-717-1109",1,NA,"RANDOMIZED","RANDOMIZED","PROTOCOL MILESTONE",3,"BASELINE","2014-01-27","2014-01-27",1
"789","CDISCPILOT01","DS","01-717-1109",2,NA,"PROTOCOL COMPLETED","COMPLETED","DISPOSITION EVENT",13,"WEEK 26","2014-07-28","2014-07-28",183
"790","CDISCPILOT01","DS","01-717-1109",3,NA,"FINAL LAB VISIT","FINAL LAB VISIT","OTHER EVENT",13,"WEEK 26","2014-07-28T10:53","2014-07-28",183
"791","CDISCPILOT01","DS","01-717-1174",1,NA,"RANDOMIZED","RANDOMIZED","PROTOCOL MILESTONE",3,"BASELINE","2013-01-22","2013-01-22",1
"792","CDISCPILOT01","DS","01-717-1174",2,NA,"PROTOCOL COMPLETED","COMPLETED","DISPOSITION EVENT",13,"WEEK 26","2013-07-24","2013-07-24",184
"793","CDISCPILOT01","DS","01-717-1174",3,NA,"FINAL LAB VISIT","FINAL LAB VISIT","OTHER EVENT",13,"WEEK 26","2013-07-24T15:15","2013-07-24",184
"794","CDISCPILOT01","DS","01-717-1201",1,NA,"RANDOMIZED","RANDOMIZED","PROTOCOL MILESTONE",3,"BASELINE","2013-12-19","2013-12-19",1
"795","CDISCPILOT01","DS","01-717-1201",2,NA,"LACK OF EFFICACY, PATIENT CAREGIVER PERCEPTION","LACK OF EFFICACY","DISPOSITION EVENT",8,"WEEK 8","2014-02-21","2014-02-21",65
"796","CDISCPILOT01","DS","01-717-1201",3,NA,"FINAL LAB VISIT","FINAL LAB VISIT","OTHER EVENT",8,"WEEK 8","2014-02-21T11:14","2014-02-21",65
"797","CDISCPILOT01","DS","01-717-1344",1,NA,"RANDOMIZED","RANDOMIZED","PROTOCOL MILESTONE",3,"BASELINE","2014-01-11","2014-01-11",1
"798","CDISCPILOT01","DS","01-717-1344",2,NA,"LACK OF EFFICACY, PATIENT CAREGIVER PERCEPTION","LACK OF EFFICACY","DISPOSITION EVENT",8,"WEEK 8","2014-03-14","2014-03-14",63
"799","CDISCPILOT01","DS","01-717-1344",3,NA,"FINAL LAB VISIT","FINAL LAB VISIT","OTHER EVENT",8,"WEEK 8","2014-03-14T14:14","2014-03-14",63
"800","CDISCPILOT01","DS","01-717-1357",1,NA,"RANDOMIZED","RANDOMIZED","PROTOCOL MILESTONE",3,"BASELINE","2013-05-01","2013-05-01",1
"801","CDISCPILOT01","DS","01-717-1357",2,NA,"SPONSOR DECISION (STUDY OR PATIENT DISCONTINUED BY THE SPONSOR)","STUDY TERMINATED BY SPONSOR","DISPOSITION EVENT",12,"WEEK 24","2013-10-20","2013-10-20",173
"802","CDISCPILOT01","DS","01-717-1357",3,NA,"FINAL LAB VISIT","FINAL LAB VISIT","OTHER EVENT",12,"WEEK 24","2013-10-20T10:52","2013-10-20",173
"803","CDISCPILOT01","DS","01-717-1446",1,NA,"RANDOMIZED","RANDOMIZED","PROTOCOL MILESTONE",3,"BASELINE","2013-09-01","2013-09-01",1
"804","CDISCPILOT01","DS","01-717-1446",2,NA,"PROTOCOL COMPLETED","COMPLETED","DISPOSITION EVENT",13,"WEEK 26","2014-03-04","2014-03-04",185
"805","CDISCPILOT01","DS","01-717-1446",3,NA,"FINAL LAB VISIT","FINAL LAB VISIT","OTHER EVENT",13.1,"UNSCHEDULED 13.1","2014-03-17T09:52","2014-03-17",198
"806","CDISCPILOT01","DS","01-718-1066",1,NA,"RANDOMIZED","RANDOMIZED","PROTOCOL MILESTONE",3,"BASELINE","2013-07-07","2013-07-07",1
"807","CDISCPILOT01","DS","01-718-1066",2,"12","ADVERSE EVENT","ADVERSE EVENT","DISPOSITION EVENT",4,"WEEK 2","2013-07-30","2013-07-30",24
"808","CDISCPILOT01","DS","01-718-1066",3,NA,"FINAL LAB VISIT","FINAL LAB VISIT","OTHER EVENT",4,"WEEK 2","2013-07-30T13:30","2013-07-30",24
"809","CDISCPILOT01","DS","01-718-1079",1,NA,"RANDOMIZED","RANDOMIZED","PROTOCOL MILESTONE",3,"BASELINE","2012-09-19","2012-09-19",1
"810","CDISCPILOT01","DS","01-718-1079",2,NA,"FINAL LAB VISIT","FINAL LAB VISIT","OTHER EVENT",7,"WEEK 6","2012-10-31T16:30","2012-10-31",43
"811","CDISCPILOT01","DS","01-718-1079",3," 9","ADVERSE EVENT","ADVERSE EVENT","DISPOSITION EVENT",7,"WEEK 6","2012-11-06","2012-11-06",49
"812","CDISCPILOT01","DS","01-718-1079",4,NA,"FINAL RETRIEVAL VISIT","FINAL RETRIEVAL VISIT","OTHER EVENT",201,"RETRIEVAL","2013-03-05","2013-03-05",168
"813","CDISCPILOT01","DS","01-718-1101",1,NA,"RANDOMIZED","RANDOMIZED","PROTOCOL MILESTONE",3,"BASELINE","2013-02-17","2013-02-17",1
"814","CDISCPILOT01","DS","01-718-1101",2,NA,"SPONSOR DECISION (STUDY OR PATIENT DISCONTINUED BY THE SPONSOR)","STUDY TERMINATED BY SPONSOR","DISPOSITION EVENT",12,"WEEK 24","2013-08-02","2013-08-02",167
"815","CDISCPILOT01","DS","01-718-1101",3,NA,"FINAL LAB VISIT","FINAL LAB VISIT","OTHER EVENT",12,"WEEK 24","2013-08-02T11:30","2013-08-02",167
"816","CDISCPILOT01","DS","01-718-1139",1,NA,"RANDOMIZED","RANDOMIZED","PROTOCOL MILESTONE",3,"BASELINE","2013-05-19","2013-05-19",1
"817","CDISCPILOT01","DS","01-718-1139",2,NA,"PROTOCOL COMPLETED","COMPLETED","DISPOSITION EVENT",13,"WEEK 26","2013-11-17","2013-11-17",183
"818","CDISCPILOT01","DS","01-718-1139",3,NA,"FINAL LAB VISIT","FINAL LAB VISIT","OTHER EVENT",13,"WEEK 26","2013-11-17T10:30","2013-11-17",183
"819","CDISCPILOT01","DS","01-718-1150",1,NA,"RANDOMIZED","RANDOMIZED","PROTOCOL MILESTONE",3,"BASELINE","2013-01-19","2013-01-19",1
"820","CDISCPILOT01","DS","01-718-1150",2,NA,"PROTOCOL COMPLETED","COMPLETED","DISPOSITION EVENT",13,"WEEK 26","2013-07-31","2013-07-31",194
"821","CDISCPILOT01","DS","01-718-1150",3,NA,"FINAL LAB VISIT","FINAL LAB VISIT","OTHER EVENT",13,"WEEK 26","2013-07-31T14:05","2013-07-31",194
"822","CDISCPILOT01","DS","01-718-1170",1,NA,"RANDOMIZED","RANDOMIZED","PROTOCOL MILESTONE",3,"BASELINE","2013-09-16","2013-09-16",1
"823","CDISCPILOT01","DS","01-718-1170",2,"12","ADVERSE EVENT","ADVERSE EVENT","DISPOSITION EVENT",5,"WEEK 4","2013-11-03","2013-11-03",49
"824","CDISCPILOT01","DS","01-718-1170",3,NA,"FINAL LAB VISIT","FINAL LAB VISIT","OTHER EVENT",5,"WEEK 4","2013-11-03T10:15","2013-11-03",49
"825","CDISCPILOT01","DS","01-718-1170",4,NA,"FINAL RETRIEVAL VISIT","FINAL RETRIEVAL VISIT","OTHER EVENT",201,"RETRIEVAL","2014-03-15","2014-03-15",181
"826","CDISCPILOT01","DS","01-718-1172",1,NA,"RANDOMIZED","RANDOMIZED","PROTOCOL MILESTONE",3,"BASELINE","2013-09-21","2013-09-21",1
"827","CDISCPILOT01","DS","01-718-1172",2,NA,"PATIENT TO BEGIN COURSE OF ARICEPT","WITHDRAWAL BY SUBJECT","DISPOSITION EVENT",9,"WEEK 12","2013-11-29","2013-11-29",70
"828","CDISCPILOT01","DS","01-718-1172",3,NA,"FINAL LAB VISIT","FINAL LAB VISIT","OTHER EVENT",9,"WEEK 12","2013-11-29T15:45","2013-11-29",70
"829","CDISCPILOT01","DS","01-718-1172",4,NA,"FINAL RETRIEVAL VISIT","FINAL RETRIEVAL VISIT","OTHER EVENT",201,"RETRIEVAL","2014-03-21","2014-03-21",182
"830","CDISCPILOT01","DS","01-718-1250",1,NA,"RANDOMIZED","RANDOMIZED","PROTOCOL MILESTONE",3,"BASELINE","2013-09-21","2013-09-21",1
"831","CDISCPILOT01","DS","01-718-1250",2," 8","ADVERSE EVENT","ADVERSE EVENT","DISPOSITION EVENT",11,"WEEK 20","2014-02-08","2014-02-08",141
"832","CDISCPILOT01","DS","01-718-1250",3,NA,"FINAL LAB VISIT","FINAL LAB VISIT","OTHER EVENT",11,"WEEK 20","2014-02-08T09:30","2014-02-08",141
"833","CDISCPILOT01","DS","01-718-1250",4,NA,"FINAL RETRIEVAL VISIT","FINAL RETRIEVAL VISIT","OTHER EVENT",201,"RETRIEVAL","2014-03-08","2014-03-08",169
"834","CDISCPILOT01","DS","01-718-1254",1,NA,"RANDOMIZED","RANDOMIZED","PROTOCOL MILESTONE",3,"BASELINE","2013-07-10","2013-07-10",1
"835","CDISCPILOT01","DS","01-718-1254",2,NA,"PROTOCOL COMPLETED","COMPLETED","DISPOSITION EVENT",13,"WEEK 26","2014-01-09","2014-01-09",184
"836","CDISCPILOT01","DS","01-718-1254",3,NA,"FINAL LAB VISIT","FINAL LAB VISIT","OTHER EVENT",13,"WEEK 26","2014-01-09T11:10","2014-01-09",184
"837","CDISCPILOT01","DS","01-718-1328",1,NA,"RANDOMIZED","RANDOMIZED","PROTOCOL MILESTONE",3,"BASELINE","2013-02-01","2013-02-01",1
"838","CDISCPILOT01","DS","01-718-1328",2,NA,"PATIENT UNABLE TO TOLERATE DERMAL IRRITATION AT PATCH SITE","WITHDRAWAL BY SUBJECT","DISPOSITION EVENT",9,"WEEK 12","2013-05-01","2013-05-01",90
"839","CDISCPILOT01","DS","01-718-1328",3,NA,"FINAL LAB VISIT","FINAL LAB VISIT","OTHER EVENT",9,"WEEK 12","2013-05-01T15:15","2013-05-01",90
"840","CDISCPILOT01","DS","01-718-1328",4,NA,"FINAL RETRIEVAL VISIT","FINAL RETRIEVAL VISIT","OTHER EVENT",201,"RETRIEVAL","2013-07-24","2013-07-24",174
"841","CDISCPILOT01","DS","01-718-1355",1,NA,"RANDOMIZED","RANDOMIZED","PROTOCOL MILESTONE",3,"BASELINE","2013-02-28","2013-02-28",1
"842","CDISCPILOT01","DS","01-718-1355",2,NA,"PROTOCOL COMPLETED","COMPLETED","DISPOSITION EVENT",13,"WEEK 26","2013-08-29","2013-08-29",183
"843","CDISCPILOT01","DS","01-718-1355",3,NA,"FINAL LAB VISIT","FINAL LAB VISIT","OTHER EVENT",13,"WEEK 26","2013-08-29T14:00","2013-08-29",183
"844","CDISCPILOT01","DS","01-718-1371",1,NA,"RANDOMIZED","RANDOMIZED","PROTOCOL MILESTONE",3,"BASELINE","2013-04-26","2013-04-26",1
"845","CDISCPILOT01","DS","01-718-1371",2,NA,"FINAL LAB VISIT","FINAL LAB VISIT","OTHER EVENT",9,"WEEK 12","2013-08-01T14:55","2013-08-01",98
"846","CDISCPILOT01","DS","01-718-1371",3,"10","ADVERSE EVENT","ADVERSE EVENT","DISPOSITION EVENT",9,"WEEK 12","2013-08-08","2013-08-08",105
"847","CDISCPILOT01","DS","01-718-1427",1,NA,"RANDOMIZED","RANDOMIZED","PROTOCOL MILESTONE",3,"BASELINE","2012-12-17","2012-12-17",1
"848","CDISCPILOT01","DS","01-718-1427",2,NA,"LACK OF EFFICACY, PATIENT CAREGIVER PERCEPTION","LACK OF EFFICACY","DISPOSITION EVENT",8,"WEEK 8","2013-02-18","2013-02-18",64
"849","CDISCPILOT01","DS","01-718-1427",3,NA,"FINAL LAB VISIT","FINAL LAB VISIT","OTHER EVENT",8.2,"UNSCHEDULED 8.2","2013-02-18T12:30","2013-02-18",64
"850","CDISCPILOT01","DS","01-718-1427",4,NA,"FINAL RETRIEVAL VISIT","FINAL RETRIEVAL VISIT","OTHER EVENT",201,"RETRIEVAL","2013-06-03","2013-06-03",169
