"","STUDYID","DOMAIN","USUBJID","MHSEQ","MHSPID","MHTERM","MHLLT","MHDECOD","MHHLT","MHHLGT","MHCAT","MHBODSYS","MHSEV","VISITNUM","VISIT","VISITDY","MHDTC","MHSTDTC","MHDY","MHENDTC","MHPRESP","MHOCCUR","MHSTRTPT","MHENRTPT","MHSTTPT","MHENTPT","MHENRF","MHSTAT"
"1","CDISCPILOT01","MH","01-701-1015",9,NA,"ALZHEIMER'S DISEASE",NA,NA,NA,NA,"PRIMARY DIAGNOSIS",NA,NA,1,"SCREENING 1",-7,"2013-12-26","2010-04-30",-7,"2011-03-20","Y","Y",NA,"BEFORE",NA,"SCREENING","BEFORE",NA
"2","CDISCPILOT01","MH","01-701-1015",1,"E01","VERBATIM_0135","PALPITATIONS","PALPITATIONS","HLT_0493","HLGT_0593","SIGNIFICANT PRE-EXISTING CONDITION","CARDIAC DISORDERS","MILD",1,"SCREENING 1",-7,"2013-12-26",NA,-7,NA,NA,NA,"BEFORE",NA,"SCREENING","FIRST DOSE OF STUDY DRUG",NA,NA
"3","CDISCPILOT01","MH","01-701-1015",8,NA,"VERBATIM_0140","SUBTOTAL HYSTERECTOMY","HYSTERECTOMY","HLT_0675","HLGT_0657","HISTORICAL DIAGNOSIS","SURGICAL AND MEDICAL PROCEDURES",NA,1,"SCREENING 1",-7,"2013-12-26","1986",-7,NA,NA,NA,"BEFORE",NA,"SCREENING","FIRST DOSE OF STUDY DRUG",NA,NA
"4","CDISCPILOT01","MH","01-701-1015",2,"E03","VERBATIM_0301","HEADACHE","HEADACHE","HLT_0064","HLGT_0344","SIGNIFICANT PRE-EXISTING CONDITION","NERVOUS SYSTEM DISORDERS","MILD",1,"SCREENING 1",-7,"2013-12-26",NA,-7,NA,NA,NA,"BEFORE",NA,"SCREENING","FIRST DOSE OF STUDY DRUG",NA,NA
"5","CDISCPILOT01","MH","01-701-1015",10,NA,"VERBATIM_0539","GALLBLADDER STONES","CHOLELITHIASIS","HLT_0084","HLGT_0177","HISTORICAL DIAGNOSIS","HEPATOBILIARY DISORDERS",NA,1,"SCREENING 1",-7,"2013-12-26","2012",-7,NA,NA,NA,"BEFORE",NA,"SCREENING","FIRST DOSE OF STUDY DRUG",NA,NA
"6","CDISCPILOT01","MH","01-701-1015",3,"E05","VERBATIM_0825","TINNITUS","TINNITUS","HLT_0570","HLGT_0180","SIGNIFICANT PRE-EXISTING CONDITION","EAR AND LABYRINTH DISORDERS","MILD",1,"SCREENING 1",-7,"2013-12-26",NA,-7,NA,NA,NA,"BEFORE",NA,"SCREENING","FIRST DOSE OF STUDY DRUG",NA,NA
"7","CDISCPILOT01","MH","01-701-1015",4,"E02","VERBATIM_0841","HEARTBURN","DYSPEPSIA","HLT_0244","HLGT_0716","SIGNIFICANT PRE-EXISTING CONDITION","GASTROINTESTINAL DISORDERS","MILD",1,"SCREENING 1",-7,"2013-12-26",NA,-7,NA,NA,NA,"BEFORE",NA,"SCREENING","FIRST DOSE OF STUDY DRUG",NA,NA
"8","CDISCPILOT01","MH","01-701-1015",6,NA,"VERBATIM_1004","THYROIDECTOMY PARTIAL","THYROIDECTOMY PARTIAL","HLT_0243","HLGT_0016","HISTORICAL DIAGNOSIS","SURGICAL AND MEDICAL PROCEDURES",NA,1,"SCREENING 1",-7,"2013-12-26","1973",-7,NA,NA,NA,"BEFORE",NA,"SCREENING","FIRST DOSE OF STUDY DRUG",NA,NA
"9","CDISCPILOT01","MH","01-701-1015",11,NA,"VERBATIM_1230","SORE THROAT","PHARYNGOLARYNGEAL PAIN","HLT_0130","HLGT_0402","HISTORICAL DIAGNOSIS","RESPIRATORY, THORACIC AND MEDIASTINAL DISORDERS",NA,1,"SCREENING 1",-7,"2013-12-26","2013-12",-7,NA,NA,NA,"BEFORE",NA,"SCREENING","FIRST DOSE OF STUDY DRUG",NA,NA
"10","CDISCPILOT01","MH","01-701-1015",7,NA,"VERBATIM_1716","TONSILLECTOMY","TONSILLECTOMY","HLT_0202","HLGT_0199","HISTORICAL DIAGNOSIS","SURGICAL AND MEDICAL PROCEDURES",NA,1,"SCREENING 1",-7,"2013-12-26","1973",-7,NA,NA,NA,"BEFORE",NA,"SCREENING","FIRST DOSE OF STUDY DRUG",NA,NA
"11","CDISCPILOT01","MH","01-701-1015",5,"E04","VERBATIM_1779","NUMBNESS IN LEG","HYPOAESTHESIA","HLT_0014","HLGT_0528","SIGNIFICANT PRE-EXISTING CONDITION","NERVOUS SYSTEM DISORDERS","MILD",1,"SCREENING 1",-7,"2013-12-26",NA,-7,NA,NA,NA,"BEFORE",NA,"SCREENING","FIRST DOSE OF STUDY DRUG",NA,NA
"12","CDISCPILOT01","MH","01-701-1023",16,NA,"ALZHEIMER'S DISEASE",NA,NA,NA,NA,"PRIMARY DIAGNOSIS",NA,NA,1,"SCREENING 1",-7,"2012-07-22","2006-03-11",-14,"2006-11-29","Y","Y",NA,"BEFORE",NA,"SCREENING","BEFORE",NA
"13","CDISCPILOT01","MH","01-701-1023",21,NA,"VERBATIM_0073","CELLULITIS OF FOOT","CELLULITIS","HLT_0613","HLGT_0066","HISTORICAL DIAGNOSIS","INFECTIONS AND INFESTATIONS",NA,1,"SCREENING 1",-7,"2012-07-22","2009",-14,NA,NA,NA,"BEFORE",NA,"SCREENING","FIRST DOSE OF STUDY DRUG",NA,NA
"14","CDISCPILOT01","MH","01-701-1023",1,"E02","VERBATIM_0249","GASTROESOPHAGEAL REFLUX","GASTROOESOPHAGEAL REFLUX DISEASE","HLT_0407","HLGT_0304","SIGNIFICANT PRE-EXISTING CONDITION","GASTROINTESTINAL DISORDERS","MILD",1,"SCREENING 1",-7,"2012-07-22",NA,-14,NA,NA,NA,"BEFORE",NA,"SCREENING","FIRST DOSE OF STUDY DRUG",NA,NA
"15","CDISCPILOT01","MH","01-701-1023",19,NA,"VERBATIM_0291","LOW BACK PAIN","BACK PAIN","HLT_0115","HLGT_0508","HISTORICAL DIAGNOSIS","MUSCULOSKELETAL AND CONNECTIVE TISSUE DISORDERS",NA,1,"SCREENING 1",-7,"2012-07-22","2007",-14,NA,NA,NA,"BEFORE",NA,"SCREENING","FIRST DOSE OF STUDY DRUG",NA,NA
"16","CDISCPILOT01","MH","01-701-1023",15,NA,"VERBATIM_0342","HYPERTENSION","HYPERTENSION","HLT_0228","HLGT_0476","HISTORICAL DIAGNOSIS","VASCULAR DISORDERS",NA,1,"SCREENING 1",-7,"2012-07-22","2005-10",-14,NA,NA,NA,"BEFORE",NA,"SCREENING","FIRST DOSE OF STUDY DRUG",NA,NA
"17","CDISCPILOT01","MH","01-701-1023",17,NA,"VERBATIM_0388","PENILE PROSTHESIS INSERTION","PENILE PROSTHESIS INSERTION","HLT_0448","HLGT_0303","HISTORICAL DIAGNOSIS","SURGICAL AND MEDICAL PROCEDURES",NA,1,"SCREENING 1",-7,"2012-07-22","2006-04",-14,NA,NA,NA,"BEFORE",NA,"SCREENING","FIRST DOSE OF STUDY DRUG",NA,NA
"18","CDISCPILOT01","MH","01-701-1023",2,"E06","VERBATIM_0461","MUSCULAR PAIN","MYALGIA","HLT_0700","HLGT_0121","SIGNIFICANT PRE-EXISTING CONDITION","MUSCULOSKELETAL AND CONNECTIVE TISSUE DISORDERS","MILD",1,"SCREENING 1",-7,"2012-07-22",NA,-14,NA,NA,NA,"BEFORE",NA,"SCREENING","FIRST DOSE OF STUDY DRUG",NA,NA
"19","CDISCPILOT01","MH","01-701-1023",12,NA,"VERBATIM_0596","NUMBNESS OF UPPER ARM","HYPOAESTHESIA","HLT_0014","HLGT_0528","HISTORICAL DIAGNOSIS","NERVOUS SYSTEM DISORDERS",NA,1,"SCREENING 1",-7,"2012-07-22","1982",-14,NA,NA,NA,"BEFORE",NA,"SCREENING","FIRST DOSE OF STUDY DRUG",NA,NA
"20","CDISCPILOT01","MH","01-701-1023",3,"E03","VERBATIM_0699","HIATAL HERNIA","HIATUS HERNIA","HLT_0159","HLGT_0109","SIGNIFICANT PRE-EXISTING CONDITION","GASTROINTESTINAL DISORDERS","MILD",1,"SCREENING 1",-7,"2012-07-22",NA,-14,NA,NA,NA,"BEFORE",NA,"SCREENING","FIRST DOSE OF STUDY DRUG",NA,NA
"21","CDISCPILOT01","MH","01-701-1023",8,NA,"VERBATIM_0788","APPENDICITIS","APPENDICITIS","HLT_0703","HLGT_0283","HISTORICAL DIAGNOSIS","INFECTIONS AND INFESTATIONS",NA,1,"SCREENING 1",-7,"2012-07-22","1956",-14,NA,NA,NA,"BEFORE",NA,"SCREENING","FIRST DOSE OF STUDY DRUG",NA,NA
"22","CDISCPILOT01","MH","01-701-1023",4,"E04","VERBATIM_0800","INDIGESTION","DYSPEPSIA","HLT_0244","HLGT_0716","SIGNIFICANT PRE-EXISTING CONDITION","GASTROINTESTINAL DISORDERS","MILD",1,"SCREENING 1",-7,"2012-07-22",NA,-14,NA,NA,NA,"BEFORE",NA,"SCREENING","FIRST DOSE OF STUDY DRUG",NA,NA
"23","CDISCPILOT01","MH","01-701-1023",5,"E05","VERBATIM_0929","HEADACHE","HEADACHE","HLT_0064","HLGT_0344","SIGNIFICANT PRE-EXISTING CONDITION","NERVOUS SYSTEM DISORDERS","MILD",1,"SCREENING 1",-7,"2012-07-22",NA,-14,NA,NA,NA,"BEFORE",NA,"SCREENING","FIRST DOSE OF STUDY DRUG",NA,NA
"24","CDISCPILOT01","MH","01-701-1023",10,NA,"VERBATIM_1002","ELBOW FRACTURE","UPPER LIMB FRACTURE","HLT_0472","HLGT_0247","HISTORICAL DIAGNOSIS","INJURY, POISONING AND PROCEDURAL COMPLICATIONS",NA,1,"SCREENING 1",-7,"2012-07-22","1963",-14,NA,NA,NA,"BEFORE",NA,"SCREENING","FIRST DOSE OF STUDY DRUG",NA,NA
"25","CDISCPILOT01","MH","01-701-1023",6,"E01","VERBATIM_1042","DYSPNEA EXERTIONAL","DYSPNOEA EXERTIONAL","HLT_0465","HLGT_0475","SIGNIFICANT PRE-EXISTING CONDITION","RESPIRATORY, THORACIC AND MEDIASTINAL DISORDERS","MILD",1,"SCREENING 1",-7,"2012-07-22",NA,-14,NA,NA,NA,"BEFORE",NA,"SCREENING","FIRST DOSE OF STUDY DRUG",NA,NA
"26","CDISCPILOT01","MH","01-701-1023",20,NA,"VERBATIM_1154","ECZEMA","ECZEMA","HLT_0747","HLGT_0748","HISTORICAL DIAGNOSIS","SKIN AND SUBCUTANEOUS TISSUE DISORDERS",NA,1,"SCREENING 1",-7,"2012-07-22","2007",-14,NA,NA,NA,"BEFORE",NA,"SCREENING","FIRST DOSE OF STUDY DRUG",NA,NA
"27","CDISCPILOT01","MH","01-701-1023",14,NA,"VERBATIM_1200","SCIATICA","SCIATICA","HLT_0242","HLGT_0293","HISTORICAL DIAGNOSIS","NERVOUS SYSTEM DISORDERS",NA,1,"SCREENING 1",-7,"2012-07-22","2005",-14,NA,NA,NA,"BEFORE",NA,"SCREENING","FIRST DOSE OF STUDY DRUG",NA,NA
"28","CDISCPILOT01","MH","01-701-1023",22,NA,"VERBATIM_1364","ITCHY SKIN","PRURITUS","HLT_0778","HLGT_0695","HISTORICAL DIAGNOSIS","SKIN AND SUBCUTANEOUS TISSUE DISORDERS",NA,1,"SCREENING 1",-7,"2012-07-22","2009",-14,NA,NA,NA,"BEFORE",NA,"SCREENING","FIRST DOSE OF STUDY DRUG",NA,NA
"29","CDISCPILOT01","MH","01-701-1023",7,"E07","VERBATIM_1532","MYOPIA","MYOPIA","HLT_0282","HLGT_0271","SIGNIFICANT PRE-EXISTING CONDITION","EYE DISORDERS","MILD",1,"SCREENING 1",-7,"2012-07-22",NA,-14,NA,NA,NA,"BEFORE",NA,"SCREENING","FIRST DOSE OF STUDY DRUG",NA,NA
"30","CDISCPILOT01","MH","01-701-1023",13,NA,"VERBATIM_1554","INGUINAL HERNIA REPAIR","INGUINAL HERNIA REPAIR","HLT_0320","HLGT_0772","HISTORICAL DIAGNOSIS","SURGICAL AND MEDICAL PROCEDURES",NA,1,"SCREENING 1",-7,"2012-07-22","1999",-14,NA,NA,NA,"BEFORE",NA,"SCREENING","FIRST DOSE OF STUDY DRUG",NA,NA
"31","CDISCPILOT01","MH","01-701-1023",18,NA,"VERBATIM_1617","PAIN TRAUMA ACTIVATED","PAIN TRAUMA ACTIVATED","HLT_0579","HLGT_0732","HISTORICAL DIAGNOSIS","INJURY, POISONING AND PROCEDURAL COMPLICATIONS",NA,1,"SCREENING 1",-7,"2012-07-22","2006-04",-14,NA,NA,NA,"BEFORE",NA,"SCREENING","FIRST DOSE OF STUDY DRUG",NA,NA
"32","CDISCPILOT01","MH","01-701-1023",11,NA,"VERBATIM_1769","SINUSITIS","SINUSITIS","HLT_0262","HLGT_0249","HISTORICAL DIAGNOSIS","INFECTIONS AND INFESTATIONS",NA,1,"SCREENING 1",-7,"2012-07-22","1978",-14,NA,NA,NA,"BEFORE",NA,"SCREENING","FIRST DOSE OF STUDY DRUG",NA,NA
"33","CDISCPILOT01","MH","01-701-1023",9,NA,"VERBATIM_1775","APPENDECTOMY","APPENDICECTOMY","HLT_0707","HLGT_0363","HISTORICAL DIAGNOSIS","SURGICAL AND MEDICAL PROCEDURES",NA,1,"SCREENING 1",-7,"2012-07-22","1956",-14,NA,NA,NA,"BEFORE",NA,"SCREENING","FIRST DOSE OF STUDY DRUG",NA,NA
"34","CDISCPILOT01","MH","01-701-1028",6,NA,"ALZHEIMER'S DISEASE",NA,NA,NA,NA,"PRIMARY DIAGNOSIS",NA,NA,1,"SCREENING 1",-7,"2013-07-11","2009-12-16",-8,"2010-11-24","Y","Y",NA,"BEFORE",NA,"SCREENING","BEFORE",NA
"35","CDISCPILOT01","MH","01-701-1028",1,"E01","VERBATIM_0428","LIPOMA","LIPOMA","HLT_0487","HLGT_0591","SIGNIFICANT PRE-EXISTING CONDITION","NEOPLASMS BENIGN, MALIGNANT AND UNSPECIFIED (INCL CYSTS AND POLYPS)","MODERATE",1,"SCREENING 1",-7,"2013-07-11",NA,-8,NA,NA,NA,"BEFORE",NA,"SCREENING","FIRST DOSE OF STUDY DRUG",NA,NA
"36","CDISCPILOT01","MH","01-701-1028",2,"E03","VERBATIM_0507","PRESBYOPIA","PRESBYOPIA","HLT_0230","HLGT_0759","SIGNIFICANT PRE-EXISTING CONDITION","EYE DISORDERS","MILD",1,"SCREENING 1",-7,"2013-07-11",NA,-8,NA,NA,NA,"BEFORE",NA,"SCREENING","FIRST DOSE OF STUDY DRUG",NA,NA
"37","CDISCPILOT01","MH","01-701-1028",5,NA,"VERBATIM_1006","LIPECTOMY","LIPECTOMY","HLT_0233","HLGT_0786","HISTORICAL DIAGNOSIS","SURGICAL AND MEDICAL PROCEDURES",NA,1,"SCREENING 1",-7,"2013-07-11","1981",-8,NA,NA,NA,"BEFORE",NA,"SCREENING","FIRST DOSE OF STUDY DRUG",NA,NA
"38","CDISCPILOT01","MH","01-701-1028",3,"E02","VERBATIM_1686","ARTHRITIS","ARTHRITIS","HLT_0019","HLGT_0587","SIGNIFICANT PRE-EXISTING CONDITION","MUSCULOSKELETAL AND CONNECTIVE TISSUE DISORDERS","MODERATE",1,"SCREENING 1",-7,"2013-07-11",NA,-8,NA,NA,NA,"BEFORE",NA,"SCREENING","FIRST DOSE OF STUDY DRUG",NA,NA
"39","CDISCPILOT01","MH","01-701-1028",4,NA,"VERBATIM_1775","APPENDECTOMY","APPENDICECTOMY","HLT_0707","HLGT_0363","HISTORICAL DIAGNOSIS","SURGICAL AND MEDICAL PROCEDURES",NA,1,"SCREENING 1",-7,"2013-07-11","1968",-8,NA,NA,NA,"BEFORE",NA,"SCREENING","FIRST DOSE OF STUDY DRUG",NA,NA
"40","CDISCPILOT01","MH","01-701-1033",26,NA,"ALZHEIMER'S DISEASE",NA,NA,NA,NA,"PRIMARY DIAGNOSIS",NA,NA,1,"SCREENING 1",-7,"2014-03-10","2009-08-02",-8,"2010-08-12","Y","Y",NA,"BEFORE",NA,"SCREENING","BEFORE",NA
"41","CDISCPILOT01","MH","01-701-1033",19,NA,"VERBATIM_0116","UMBILICAL HERNIA REPAIR","UMBILICAL HERNIA REPAIR","HLT_0278","HLGT_0377","HISTORICAL DIAGNOSIS","SURGICAL AND MEDICAL PROCEDURES",NA,1,"SCREENING 1",-7,"2014-03-10","1993",-8,NA,NA,NA,"BEFORE",NA,"SCREENING","FIRST DOSE OF STUDY DRUG",NA,NA
"42","CDISCPILOT01","MH","01-701-1033",1,"E02","VERBATIM_0138","BENIGN PROSTATIC HYPERTROPHY","BENIGN PROSTATIC HYPERPLASIA","HLT_0215","HLGT_0568","SIGNIFICANT PRE-EXISTING CONDITION","REPRODUCTIVE SYSTEM AND BREAST DISORDERS","MILD",1,"SCREENING 1",-7,"2014-03-10",NA,-8,NA,NA,NA,"BEFORE",NA,"SCREENING","FIRST DOSE OF STUDY DRUG",NA,NA
"43","CDISCPILOT01","MH","01-701-1033",2,"E03","VERBATIM_0165","BALANCE DIFFICULTY","BALANCE DISORDER","HLT_0541","HLGT_0101","SIGNIFICANT PRE-EXISTING CONDITION","NERVOUS SYSTEM DISORDERS","MILD",1,"SCREENING 1",-7,"2014-03-10",NA,-8,NA,NA,NA,"BEFORE",NA,"SCREENING","FIRST DOSE OF STUDY DRUG",NA,NA
"44","CDISCPILOT01","MH","01-701-1033",14,NA,"VERBATIM_0201","IRON DEFICIENCY ANEMIA","IRON DEFICIENCY ANAEMIA","HLT_0331","HLGT_0739","HISTORICAL DIAGNOSIS","BLOOD AND LYMPHATIC SYSTEM DISORDERS",NA,1,"SCREENING 1",-7,"2014-03-10","1972",-8,NA,NA,NA,"BEFORE",NA,"SCREENING","FIRST DOSE OF STUDY DRUG",NA,NA
"45","CDISCPILOT01","MH","01-701-1033",15,NA,"VERBATIM_0429","LACERATION","LACERATION","HLT_0668","HLGT_0567","HISTORICAL DIAGNOSIS","INJURY, POISONING AND PROCEDURAL COMPLICATIONS",NA,1,"SCREENING 1",-7,"2014-03-10","1982",-8,NA,NA,NA,"BEFORE",NA,"SCREENING","FIRST DOSE OF STUDY DRUG",NA,NA
"46","CDISCPILOT01","MH","01-701-1033",16,NA,"VERBATIM_0581","FAINTING","SYNCOPE","HLT_0440","HLGT_0310","HISTORICAL DIAGNOSIS","NERVOUS SYSTEM DISORDERS",NA,1,"SCREENING 1",-7,"2014-03-10","1982",-8,NA,NA,NA,"BEFORE",NA,"SCREENING","FIRST DOSE OF STUDY DRUG",NA,NA
"47","CDISCPILOT01","MH","01-701-1033",3,"E05","VERBATIM_0672","KNEE PAIN","ARTHRALGIA","HLT_0375","HLGT_0610","SIGNIFICANT PRE-EXISTING CONDITION","MUSCULOSKELETAL AND CONNECTIVE TISSUE DISORDERS","MILD",1,"SCREENING 1",-7,"2014-03-10",NA,-8,NA,NA,NA,"BEFORE",NA,"SCREENING","FIRST DOSE OF STUDY DRUG",NA,NA
"48","CDISCPILOT01","MH","01-701-1033",4,"E09","VERBATIM_0746","ANGINA PECTORIS","ANGINA PECTORIS","HLT_0033","HLGT_0063","SIGNIFICANT PRE-EXISTING CONDITION","CARDIAC DISORDERS","MILD",1,"SCREENING 1",-7,"2014-03-10",NA,-8,NA,NA,NA,"BEFORE",NA,"SCREENING","FIRST DOSE OF STUDY DRUG",NA,NA
"49","CDISCPILOT01","MH","01-701-1033",17,NA,"VERBATIM_0752","LOSS OF SENSATION","SENSORY LOSS","HLT_0164","HLGT_0718","HISTORICAL DIAGNOSIS","NERVOUS SYSTEM DISORDERS",NA,1,"SCREENING 1",-7,"2014-03-10","1982",-8,NA,NA,NA,"BEFORE",NA,"SCREENING","FIRST DOSE OF STUDY DRUG",NA,NA
"50","CDISCPILOT01","MH","01-701-1033",24,NA,"VERBATIM_0816","EOSINOPHILIC PNEUMONIA","EOSINOPHILIC PNEUMONIA","HLT_0207","HLGT_0529","HISTORICAL DIAGNOSIS","RESPIRATORY, THORACIC AND MEDIASTINAL DISORDERS",NA,1,"SCREENING 1",-7,"2014-03-10","2008",-8,NA,NA,NA,"BEFORE",NA,"SCREENING","FIRST DOSE OF STUDY DRUG",NA,NA
"51","CDISCPILOT01","MH","01-701-1033",5,"E04","VERBATIM_0858","GONARTHRITIS","MONARTHRITIS","HLT_0592","HLGT_0196","SIGNIFICANT PRE-EXISTING CONDITION","MUSCULOSKELETAL AND CONNECTIVE TISSUE DISORDERS","MILD",1,"SCREENING 1",-7,"2014-03-10",NA,-8,NA,NA,NA,"BEFORE",NA,"SCREENING","FIRST DOSE OF STUDY DRUG",NA,NA
"52","CDISCPILOT01","MH","01-701-1033",11,NA,"VERBATIM_0868","NERVE COMPRESSION","NERVE COMPRESSION","HLT_0463","HLGT_0502","HISTORICAL DIAGNOSIS","NERVOUS SYSTEM DISORDERS",NA,1,"SCREENING 1",-7,"2014-03-10","1955",-8,NA,NA,NA,"BEFORE",NA,"SCREENING","FIRST DOSE OF STUDY DRUG",NA,NA
"53","CDISCPILOT01","MH","01-701-1033",21,NA,"VERBATIM_0870","FRACTURED RIBS","RIB FRACTURE","HLT_0292","HLGT_0583","HISTORICAL DIAGNOSIS","INJURY, POISONING AND PROCEDURAL COMPLICATIONS",NA,1,"SCREENING 1",-7,"2014-03-10","2007",-8,NA,NA,NA,"BEFORE",NA,"SCREENING","FIRST DOSE OF STUDY DRUG",NA,NA
"54","CDISCPILOT01","MH","01-701-1033",18,NA,"VERBATIM_0991","HAND REPAIR OPERATION","HAND REPAIR OPERATION","HLT_0581","HLGT_0276","HISTORICAL DIAGNOSIS","SURGICAL AND MEDICAL PROCEDURES",NA,1,"SCREENING 1",-7,"2014-03-10","1982",-8,NA,NA,NA,"BEFORE",NA,"SCREENING","FIRST DOSE OF STUDY DRUG",NA,NA
"55","CDISCPILOT01","MH","01-701-1033",22,NA,"VERBATIM_1156","ELBOW FRACTURE","UPPER LIMB FRACTURE","HLT_0472","HLGT_0247","HISTORICAL DIAGNOSIS","INJURY, POISONING AND PROCEDURAL COMPLICATIONS",NA,1,"SCREENING 1",-7,"2014-03-10","2007",-8,NA,NA,NA,"BEFORE",NA,"SCREENING","FIRST DOSE OF STUDY DRUG",NA,NA
"56","CDISCPILOT01","MH","01-701-1033",25,NA,"VERBATIM_1209","JOINT PROSTHESIS INSERTION","JOINT ARTHROPLASTY","HLT_0416","HLGT_0120","HISTORICAL DIAGNOSIS","SURGICAL AND MEDICAL PROCEDURES",NA,1,"SCREENING 1",-7,"2014-03-10","2008",-8,NA,NA,NA,"BEFORE",NA,"SCREENING","FIRST DOSE OF STUDY DRUG",NA,NA
"57","CDISCPILOT01","MH","01-701-1033",6,"E08","VERBATIM_1421","COUGH","COUGH","HLT_0701","HLGT_0280","SIGNIFICANT PRE-EXISTING CONDITION","RESPIRATORY, THORACIC AND MEDIASTINAL DISORDERS","MILD",1,"SCREENING 1",-7,"2014-03-10",NA,-8,NA,NA,NA,"BEFORE",NA,"SCREENING","FIRST DOSE OF STUDY DRUG",NA,NA
"58","CDISCPILOT01","MH","01-701-1033",13,NA,"VERBATIM_1425","LOCALIZED EDEMA","LOCALISED OEDEMA","HLT_0410","HLGT_0372","HISTORICAL DIAGNOSIS","GENERAL DISORDERS AND ADMINISTRATION SITE CONDITIONS",NA,1,"SCREENING 1",-7,"2014-03-10","1964",-8,NA,NA,NA,"BEFORE",NA,"SCREENING","FIRST DOSE OF STUDY DRUG",NA,NA
"59","CDISCPILOT01","MH","01-701-1033",23,NA,"VERBATIM_1457","FRACTURED JAW","JAW FRACTURE","HLT_0488","HLGT_0420","HISTORICAL DIAGNOSIS","INJURY, POISONING AND PROCEDURAL COMPLICATIONS",NA,1,"SCREENING 1",-7,"2014-03-10","2007",-8,NA,NA,NA,"BEFORE",NA,"SCREENING","FIRST DOSE OF STUDY DRUG",NA,NA
"60","CDISCPILOT01","MH","01-701-1033",7,"E06","VERBATIM_1532","MYOPIA","MYOPIA","HLT_0282","HLGT_0271","SIGNIFICANT PRE-EXISTING CONDITION","EYE DISORDERS","MILD",1,"SCREENING 1",-7,"2014-03-10",NA,-8,NA,NA,NA,"BEFORE",NA,"SCREENING","FIRST DOSE OF STUDY DRUG",NA,NA
"61","CDISCPILOT01","MH","01-701-1033",12,NA,"VERBATIM_1594","PLEURISY","PLEURISY","HLT_0268","HLGT_0356","HISTORICAL DIAGNOSIS","RESPIRATORY, THORACIC AND MEDIASTINAL DISORDERS",NA,1,"SCREENING 1",-7,"2014-03-10","1955",-8,NA,NA,NA,"BEFORE",NA,"SCREENING","FIRST DOSE OF STUDY DRUG",NA,NA
"62","CDISCPILOT01","MH","01-701-1033",8,"E07","VERBATIM_1612","NASAL CONGESTION","NASAL CONGESTION","HLT_0118","HLGT_0549","SIGNIFICANT PRE-EXISTING CONDITION","RESPIRATORY, THORACIC AND MEDIASTINAL DISORDERS","MILD",1,"SCREENING 1",-7,"2014-03-10",NA,-8,NA,NA,NA,"BEFORE",NA,"SCREENING","FIRST DOSE OF STUDY DRUG",NA,NA
"63","CDISCPILOT01","MH","01-701-1033",9,"E01","VERBATIM_1653","ANKLE EDEMA","OEDEMA PERIPHERAL","HLT_0661","HLGT_0137","SIGNIFICANT PRE-EXISTING CONDITION","GENERAL DISORDERS AND ADMINISTRATION SITE CONDITIONS","MILD",1,"SCREENING 1",-7,"2014-03-10",NA,-8,NA,NA,NA,"BEFORE",NA,"SCREENING","FIRST DOSE OF STUDY DRUG",NA,NA
"64","CDISCPILOT01","MH","01-701-1033",10,NA,"VERBATIM_1716","TONSILLECTOMY","TONSILLECTOMY","HLT_0202","HLGT_0199","HISTORICAL DIAGNOSIS","SURGICAL AND MEDICAL PROCEDURES",NA,1,"SCREENING 1",-7,"2014-03-10","1951",-8,NA,NA,NA,"BEFORE",NA,"SCREENING","FIRST DOSE OF STUDY DRUG",NA,NA
"65","CDISCPILOT01","MH","01-701-1033",20,NA,"VERBATIM_1756","UMBILICAL HERNIA","UMBILICAL HERNIA","HLT_0067","HLGT_0187","HISTORICAL DIAGNOSIS","GASTROINTESTINAL DISORDERS",NA,1,"SCREENING 1",-7,"2014-03-10","1993",-8,NA,NA,NA,"BEFORE",NA,"SCREENING","FIRST DOSE OF STUDY DRUG",NA,NA
"66","CDISCPILOT01","MH","01-701-1034",13,NA,"ALZHEIMER'S DISEASE",NA,NA,NA,NA,"PRIMARY DIAGNOSIS",NA,NA,1,"SCREENING 1",-7,"2014-06-24","2011-09-29",-7,"2012-05-03","Y","Y",NA,"BEFORE",NA,"SCREENING","BEFORE",NA
"67","CDISCPILOT01","MH","01-701-1034",14,NA,"VERBATIM_0122","LEG FRACTURE","LOWER LIMB FRACTURE","HLT_0348","HLGT_0435","HISTORICAL DIAGNOSIS","INJURY, POISONING AND PROCEDURAL COMPLICATIONS",NA,1,"SCREENING 1",-7,"2014-06-24","2012",-7,NA,NA,NA,"BEFORE",NA,"SCREENING","FIRST DOSE OF STUDY DRUG",NA,NA
"68","CDISCPILOT01","MH","01-701-1034",1,"E02","VERBATIM_0443","CONSTIPATION","CONSTIPATION","HLT_0402","HLGT_0635","SIGNIFICANT PRE-EXISTING CONDITION","GASTROINTESTINAL DISORDERS","MILD",1,"SCREENING 1",-7,"2014-06-24",NA,-7,NA,NA,NA,"BEFORE",NA,"SCREENING","FIRST DOSE OF STUDY DRUG",NA,NA
"69","CDISCPILOT01","MH","01-701-1034",2,"E03","VERBATIM_0692","HYPOTHYROIDISM","HYPOTHYROIDISM","HLT_0454","HLGT_0558","SIGNIFICANT PRE-EXISTING CONDITION","ENDOCRINE DISORDERS","MILD",1,"SCREENING 1",-7,"2014-06-24",NA,-7,NA,NA,NA,"BEFORE",NA,"SCREENING","FIRST DOSE OF STUDY DRUG",NA,NA
"70","CDISCPILOT01","MH","01-701-1034",3,"E06","VERBATIM_0753","ARTHRITIS","ARTHRITIS","HLT_0019","HLGT_0587","SIGNIFICANT PRE-EXISTING CONDITION","MUSCULOSKELETAL AND CONNECTIVE TISSUE DISORDERS","MILD",1,"SCREENING 1",-7,"2014-06-24",NA,-7,NA,NA,NA,"BEFORE",NA,"SCREENING","FIRST DOSE OF STUDY DRUG",NA,NA
"71","CDISCPILOT01","MH","01-701-1034",4,"E04","VERBATIM_0763","ARTHRITIS","ARTHRITIS","HLT_0019","HLGT_0587","SIGNIFICANT PRE-EXISTING CONDITION","MUSCULOSKELETAL AND CONNECTIVE TISSUE DISORDERS","MILD",1,"SCREENING 1",-7,"2014-06-24",NA,-7,NA,NA,NA,"BEFORE",NA,"SCREENING","FIRST DOSE OF STUDY DRUG",NA,NA
"72","CDISCPILOT01","MH","01-701-1034",9,NA,"VERBATIM_0936","HYSTERECTOMY","HYSTERECTOMY","HLT_0675","HLGT_0657","HISTORICAL DIAGNOSIS","SURGICAL AND MEDICAL PROCEDURES",NA,1,"SCREENING 1",-7,"2014-06-24","1960",-7,NA,NA,NA,"BEFORE",NA,"SCREENING","FIRST DOSE OF STUDY DRUG",NA,NA
"73","CDISCPILOT01","MH","01-701-1034",15,NA,"VERBATIM_0973","MUSCLE SPASMS","MUSCLE SPASMS","HLT_0078","HLGT_0750","HISTORICAL DIAGNOSIS","MUSCULOSKELETAL AND CONNECTIVE TISSUE DISORDERS",NA,1,"SCREENING 1",-7,"2014-06-24","2013-12-21",-7,"2014-01-19",NA,NA,"BEFORE","BEFORE","SCREENING","FIRST DOSE OF STUDY DRUG","BEFORE",NA
"74","CDISCPILOT01","MH","01-701-1034",11,NA,"VERBATIM_1132","FOOT FRACTURE","FOOT FRACTURE","HLT_0768","HLGT_0287","HISTORICAL DIAGNOSIS","INJURY, POISONING AND PROCEDURAL COMPLICATIONS",NA,1,"SCREENING 1",-7,"2014-06-24","2004",-7,NA,NA,NA,"BEFORE",NA,"SCREENING","FIRST DOSE OF STUDY DRUG",NA,NA
"75","CDISCPILOT01","MH","01-701-1034",10,NA,"VERBATIM_1133","RECTAL FISTULA","ANAL FISTULA","HLT_0653","HLGT_0268","HISTORICAL DIAGNOSIS","GASTROINTESTINAL DISORDERS",NA,1,"SCREENING 1",-7,"2014-06-24","1962",-7,NA,NA,NA,"BEFORE",NA,"SCREENING","FIRST DOSE OF STUDY DRUG",NA,NA
"76","CDISCPILOT01","MH","01-701-1034",12,NA,"VERBATIM_1162","FACE LIFT","FACE LIFT","HLT_0743","HLGT_0520","HISTORICAL DIAGNOSIS","SURGICAL AND MEDICAL PROCEDURES",NA,1,"SCREENING 1",-7,"2014-06-24","2011-08-21",-7,"2012-03-29",NA,NA,"BEFORE","BEFORE","SCREENING","FIRST DOSE OF STUDY DRUG","BEFORE",NA
"77","CDISCPILOT01","MH","01-701-1034",5,"E01","VERBATIM_1385","ABDOMINAL PAIN","ABDOMINAL PAIN","HLT_0217","HLGT_0419","SIGNIFICANT PRE-EXISTING CONDITION","GASTROINTESTINAL DISORDERS","MILD",1,"SCREENING 1",-7,"2014-06-24",NA,-7,NA,NA,NA,"BEFORE",NA,"SCREENING","FIRST DOSE OF STUDY DRUG",NA,NA
"78","CDISCPILOT01","MH","01-701-1034",16,NA,"VERBATIM_1680","BLOOD PRESSURE INCREASED","BLOOD PRESSURE INCREASED","HLT_0399","HLGT_0647","HISTORICAL DIAGNOSIS","INVESTIGATIONS",NA,1,"SCREENING 1",-7,"2014-06-24","2014-06-11",-7,"2015-04-11",NA,NA,"BEFORE","ONGOING","SCREENING","FIRST DOSE OF STUDY DRUG","AFTER",NA
"79","CDISCPILOT01","MH","01-701-1034",6,"E05","VERBATIM_1683","HYPEROPIA","HYPERMETROPIA","HLT_0546","HLGT_0646","SIGNIFICANT PRE-EXISTING CONDITION","EYE DISORDERS","MILD",1,"SCREENING 1",-7,"2014-06-24",NA,-7,NA,NA,NA,"BEFORE",NA,"SCREENING","FIRST DOSE OF STUDY DRUG",NA,NA
"80","CDISCPILOT01","MH","01-701-1034",7,NA,"VERBATIM_1716","TONSILLECTOMY","TONSILLECTOMY","HLT_0202","HLGT_0199","HISTORICAL DIAGNOSIS","SURGICAL AND MEDICAL PROCEDURES",NA,1,"SCREENING 1",-7,"2014-06-24","1946",-7,NA,NA,NA,"BEFORE",NA,"SCREENING","FIRST DOSE OF STUDY DRUG",NA,NA
"81","CDISCPILOT01","MH","01-701-1034",8,NA,"VERBATIM_1775","APPENDECTOMY","APPENDICECTOMY","HLT_0707","HLGT_0363","HISTORICAL DIAGNOSIS","SURGICAL AND MEDICAL PROCEDURES",NA,1,"SCREENING 1",-7,"2014-06-24","1949",-7,NA,NA,NA,"BEFORE",NA,"SCREENING","FIRST DOSE OF STUDY DRUG",NA,NA
"82","CDISCPILOT01","MH","01-701-1047",14,NA,"ALZHEIMER'S DISEASE",NA,NA,NA,NA,"PRIMARY DIAGNOSIS",NA,NA,1,"SCREENING 1",-7,"2013-01-22","2009-07-26",-21,"2010-05-09","Y","Y",NA,"BEFORE",NA,"SCREENING","BEFORE",NA
"83","CDISCPILOT01","MH","01-701-1047",1,"E03","VERBATIM_0253","PSORIASIS","PSORIASIS","HLT_0740","HLGT_0038","SIGNIFICANT PRE-EXISTING CONDITION","SKIN AND SUBCUTANEOUS TISSUE DISORDERS","MILD",1,"SCREENING 1",-7,"2013-01-22",NA,-21,NA,NA,NA,"BEFORE",NA,"SCREENING","FIRST DOSE OF STUDY DRUG",NA,NA
"84","CDISCPILOT01","MH","01-701-1047",15,NA,"VERBATIM_0361","BLADDER INFECTION","CYSTITIS","HLT_0739","HLGT_0129","HISTORICAL DIAGNOSIS","INFECTIONS AND INFESTATIONS",NA,1,"SCREENING 1",-7,"2013-01-22","2012",-21,NA,NA,NA,"BEFORE",NA,"SCREENING","FIRST DOSE OF STUDY DRUG",NA,NA
"85","CDISCPILOT01","MH","01-701-1047",12,NA,"VERBATIM_0514","CATARACT OPERATION","CATARACT OPERATION","HLT_0432","HLGT_0058","HISTORICAL DIAGNOSIS","SURGICAL AND MEDICAL PROCEDURES",NA,1,"SCREENING 1",-7,"2013-01-22","2009",-21,NA,NA,NA,"BEFORE",NA,"SCREENING","FIRST DOSE OF STUDY DRUG",NA,NA
"86","CDISCPILOT01","MH","01-701-1047",2,"E07","VERBATIM_0538","NUMBNESS IN HAND","HYPOAESTHESIA","HLT_0014","HLGT_0528","SIGNIFICANT PRE-EXISTING CONDITION","NERVOUS SYSTEM DISORDERS","MILD",1,"SCREENING 1",-7,"2013-01-22",NA,-21,NA,NA,NA,"BEFORE",NA,"SCREENING","FIRST DOSE OF STUDY DRUG",NA,NA
"87","CDISCPILOT01","MH","01-701-1047",16,NA,"VERBATIM_0675","CATARACT OPERATION","CATARACT OPERATION","HLT_0432","HLGT_0058","HISTORICAL DIAGNOSIS","SURGICAL AND MEDICAL PROCEDURES",NA,1,"SCREENING 1",-7,"2013-01-22","2012",-21,NA,NA,NA,"BEFORE",NA,"SCREENING","FIRST DOSE OF STUDY DRUG",NA,NA
"88","CDISCPILOT01","MH","01-701-1047",3,"E01","VERBATIM_0699","HIATAL HERNIA","HIATUS HERNIA","HLT_0159","HLGT_0109","SIGNIFICANT PRE-EXISTING CONDITION","GASTROINTESTINAL DISORDERS","MILD",1,"SCREENING 1",-7,"2013-01-22",NA,-21,NA,NA,NA,"BEFORE",NA,"SCREENING","FIRST DOSE OF STUDY DRUG",NA,NA
"89","CDISCPILOT01","MH","01-701-1047",4,"E10","VERBATIM_0918","EDEMATOUS FEET","OEDEMA PERIPHERAL","HLT_0661","HLGT_0137","SIGNIFICANT PRE-EXISTING CONDITION","GENERAL DISORDERS AND ADMINISTRATION SITE CONDITIONS","MILD",1,"SCREENING 1",-7,"2013-01-22",NA,-21,NA,NA,NA,"BEFORE",NA,"SCREENING","FIRST DOSE OF STUDY DRUG",NA,NA
"90","CDISCPILOT01","MH","01-701-1047",9,NA,"VERBATIM_0936","HYSTERECTOMY","HYSTERECTOMY","HLT_0675","HLGT_0657","HISTORICAL DIAGNOSIS","SURGICAL AND MEDICAL PROCEDURES",NA,1,"SCREENING 1",-7,"2013-01-22","1967",-21,NA,NA,NA,"BEFORE",NA,"SCREENING","FIRST DOSE OF STUDY DRUG",NA,NA
"91","CDISCPILOT01","MH","01-701-1047",10,NA,"VERBATIM_1041","ULCER","ULCER","HLT_0040","HLGT_0245","HISTORICAL DIAGNOSIS","GENERAL DISORDERS AND ADMINISTRATION SITE CONDITIONS",NA,1,"SCREENING 1",-7,"2013-01-22","1971",-21,NA,NA,NA,"BEFORE",NA,"SCREENING","FIRST DOSE OF STUDY DRUG",NA,NA
"92","CDISCPILOT01","MH","01-701-1047",5,"E04","VERBATIM_1245","ARTHRITIS","ARTHRITIS","HLT_0019","HLGT_0587","SIGNIFICANT PRE-EXISTING CONDITION","MUSCULOSKELETAL AND CONNECTIVE TISSUE DISORDERS","MILD",1,"SCREENING 1",-7,"2013-01-22",NA,-21,NA,NA,NA,"BEFORE",NA,"SCREENING","FIRST DOSE OF STUDY DRUG",NA,NA
"93","CDISCPILOT01","MH","01-701-1047",11,NA,"VERBATIM_1324","CHOLECYSTECTOMY","CHOLECYSTECTOMY","HLT_0149","HLGT_0074","HISTORICAL DIAGNOSIS","SURGICAL AND MEDICAL PROCEDURES",NA,1,"SCREENING 1",-7,"2013-01-22","1987",-21,NA,NA,NA,"BEFORE",NA,"SCREENING","FIRST DOSE OF STUDY DRUG",NA,NA
"94","CDISCPILOT01","MH","01-701-1047",6,"E02","VERBATIM_1512","HYPOTHYROIDISM","HYPOTHYROIDISM","HLT_0454","HLGT_0558","SIGNIFICANT PRE-EXISTING CONDITION","ENDOCRINE DISORDERS","MILD",1,"SCREENING 1",-7,"2013-01-22",NA,-21,NA,NA,NA,"BEFORE",NA,"SCREENING","FIRST DOSE OF STUDY DRUG",NA,NA
"95","CDISCPILOT01","MH","01-701-1047",13,NA,"VERBATIM_1684","HEMORRHOIDS","HAEMORRHOIDS","HLT_0681","HLGT_0485","HISTORICAL DIAGNOSIS","GASTROINTESTINAL DISORDERS",NA,1,"SCREENING 1",-7,"2013-01-22","2009",-21,NA,NA,NA,"BEFORE",NA,"SCREENING","FIRST DOSE OF STUDY DRUG",NA,NA
"96","CDISCPILOT01","MH","01-701-1047",8,NA,"VERBATIM_1716","TONSILLECTOMY","TONSILLECTOMY","HLT_0202","HLGT_0199","HISTORICAL DIAGNOSIS","SURGICAL AND MEDICAL PROCEDURES",NA,1,"SCREENING 1",-7,"2013-01-22","1937",-21,NA,NA,NA,"BEFORE",NA,"SCREENING","FIRST DOSE OF STUDY DRUG",NA,NA
"97","CDISCPILOT01","MH","01-701-1047",7,"E05","VERBATIM_1769","SINUSITIS","SINUSITIS","HLT_0262","HLGT_0249","SIGNIFICANT PRE-EXISTING CONDITION","INFECTIONS AND INFESTATIONS","MILD",1,"SCREENING 1",-7,"2013-01-22",NA,-21,NA,NA,NA,"BEFORE",NA,"SCREENING","FIRST DOSE OF STUDY DRUG",NA,NA
"98","CDISCPILOT01","MH","01-701-1097",4,NA,"ALZHEIMER'S DISEASE",NA,NA,NA,NA,"PRIMARY DIAGNOSIS",NA,NA,1,"SCREENING 1",-7,"2013-12-23","2005-09-22",-9,"2006-07-09","Y","Y",NA,"BEFORE",NA,"SCREENING","BEFORE",NA
"99","CDISCPILOT01","MH","01-701-1097",1,"E02","VERBATIM_0507","PRESBYOPIA","PRESBYOPIA","HLT_0230","HLGT_0759","SIGNIFICANT PRE-EXISTING CONDITION","EYE DISORDERS","MILD",1,"SCREENING 1",-7,"2013-12-23",NA,-9,NA,NA,NA,"BEFORE",NA,"SCREENING","FIRST DOSE OF STUDY DRUG",NA,NA
"100","CDISCPILOT01","MH","01-701-1097",2,"E01","VERBATIM_0662","GONARTHRITIS","MONARTHRITIS","HLT_0592","HLGT_0196","SIGNIFICANT PRE-EXISTING CONDITION","MUSCULOSKELETAL AND CONNECTIVE TISSUE DISORDERS","MILD",1,"SCREENING 1",-7,"2013-12-23",NA,-9,NA,NA,NA,"BEFORE",NA,"SCREENING","FIRST DOSE OF STUDY DRUG",NA,NA
"101","CDISCPILOT01","MH","01-701-1097",5,NA,"VERBATIM_0663","GINGIVITIS","GINGIVITIS","HLT_0093","HLGT_0685","HISTORICAL DIAGNOSIS","GASTROINTESTINAL DISORDERS",NA,1,"SCREENING 1",-7,"2013-12-23","2013-04",-9,NA,NA,NA,"BEFORE",NA,"SCREENING","FIRST DOSE OF STUDY DRUG",NA,NA
"102","CDISCPILOT01","MH","01-701-1097",6,NA,"VERBATIM_0935","GINGIVAL OPERATION","GINGIVAL OPERATION","HLT_0004","HLGT_0266","HISTORICAL DIAGNOSIS","SURGICAL AND MEDICAL PROCEDURES",NA,1,"SCREENING 1",-7,"2013-12-23","2013-04",-9,NA,NA,NA,"BEFORE",NA,"SCREENING","FIRST DOSE OF STUDY DRUG",NA,NA
"103","CDISCPILOT01","MH","01-701-1097",3,"E03","VERBATIM_1769","SINUSITIS","SINUSITIS","HLT_0262","HLGT_0249","SIGNIFICANT PRE-EXISTING CONDITION","INFECTIONS AND INFESTATIONS","MILD",1,"SCREENING 1",-7,"2013-12-23",NA,-9,NA,NA,NA,"BEFORE",NA,"SCREENING","FIRST DOSE OF STUDY DRUG",NA,NA
"104","CDISCPILOT01","MH","01-701-1111",29,NA,"ALZHEIMER'S DISEASE",NA,NA,NA,NA,"PRIMARY DIAGNOSIS",NA,NA,1,"SCREENING 1",-7,"2012-08-25","2009-04-04",-13,"2010-01-14","Y","Y",NA,"BEFORE",NA,"SCREENING","BEFORE",NA
"105","CDISCPILOT01","MH","01-701-1111",18,NA,"VERBATIM_0063","WRIST FRACTURE","WRIST FRACTURE","HLT_0537","HLGT_0281","HISTORICAL DIAGNOSIS","INJURY, POISONING AND PROCEDURAL COMPLICATIONS",NA,1,"SCREENING 1",-7,"2012-08-25","1986",-13,NA,NA,NA,"BEFORE",NA,"SCREENING","FIRST DOSE OF STUDY DRUG",NA,NA
"106","CDISCPILOT01","MH","01-701-1111",16,NA,"VERBATIM_0250","RECTAL BLEEDING","RECTAL HAEMORRHAGE","HLT_0353","HLGT_0755","HISTORICAL DIAGNOSIS","GASTROINTESTINAL DISORDERS",NA,1,"SCREENING 1",-7,"2012-08-25","1981",-13,NA,NA,NA,"BEFORE",NA,"SCREENING","FIRST DOSE OF STUDY DRUG",NA,NA
"107","CDISCPILOT01","MH","01-701-1111",17,NA,"VERBATIM_0267","HEMORRHOIDS","HAEMORRHOIDS","HLT_0681","HLGT_0485","HISTORICAL DIAGNOSIS","GASTROINTESTINAL DISORDERS",NA,1,"SCREENING 1",-7,"2012-08-25","1981",-13,NA,NA,NA,"BEFORE",NA,"SCREENING","FIRST DOSE OF STUDY DRUG",NA,NA
"108","CDISCPILOT01","MH","01-701-1111",23,NA,"VERBATIM_0361","BLADDER INFECTION","CYSTITIS","HLT_0739","HLGT_0129","HISTORICAL DIAGNOSIS","INFECTIONS AND INFESTATIONS",NA,1,"SCREENING 1",-7,"2012-08-25","2002",-13,NA,NA,NA,"BEFORE",NA,"SCREENING","FIRST DOSE OF STUDY DRUG",NA,NA
"109","CDISCPILOT01","MH","01-701-1111",15,NA,"VERBATIM_0526","TUBERCULOSIS","TUBERCULOSIS","HLT_0344","HLGT_0774","HISTORICAL DIAGNOSIS","INFECTIONS AND INFESTATIONS",NA,1,"SCREENING 1",-7,"2012-08-25","1952",-13,NA,NA,NA,"BEFORE",NA,"SCREENING","FIRST DOSE OF STUDY DRUG",NA,NA
"110","CDISCPILOT01","MH","01-701-1111",30,NA,"VERBATIM_0543","DEGENERATION MACULAR","MACULAR DEGENERATION","HLT_0401","HLGT_0370","HISTORICAL DIAGNOSIS","EYE DISORDERS",NA,1,"SCREENING 1",-7,"2012-08-25","2012",-13,NA,NA,NA,"BEFORE",NA,"SCREENING","FIRST DOSE OF STUDY DRUG",NA,NA
"111","CDISCPILOT01","MH","01-701-1111",1,"E11","VERBATIM_0546","HEARING LOSS","DEAFNESS","HLT_0234","HLGT_0025","SIGNIFICANT PRE-EXISTING CONDITION","EAR AND LABYRINTH DISORDERS","MILD",1,"SCREENING 1",-7,"2012-08-25",NA,-13,NA,NA,NA,"BEFORE",NA,"SCREENING","FIRST DOSE OF STUDY DRUG",NA,NA
"112","CDISCPILOT01","MH","01-701-1111",2,"E04","VERBATIM_0699","HIATAL HERNIA","HIATUS HERNIA","HLT_0159","HLGT_0109","SIGNIFICANT PRE-EXISTING CONDITION","GASTROINTESTINAL DISORDERS","MILD",1,"SCREENING 1",-7,"2012-08-25",NA,-13,NA,NA,NA,"BEFORE",NA,"SCREENING","FIRST DOSE OF STUDY DRUG",NA,NA
"113","CDISCPILOT01","MH","01-701-1111",28,NA,"VERBATIM_0702","EATING DISORDER","EATING DISORDER","HLT_0538","HLGT_0235","HISTORICAL DIAGNOSIS","PSYCHIATRIC DISORDERS",NA,1,"SCREENING 1",-7,"2012-08-25","2009",-13,NA,NA,NA,"BEFORE",NA,"SCREENING","FIRST DOSE OF STUDY DRUG",NA,NA
"114","CDISCPILOT01","MH","01-701-1111",19,NA,"VERBATIM_0740","FOOT FRACTURE","FOOT FRACTURE","HLT_0768","HLGT_0287","HISTORICAL DIAGNOSIS","INJURY, POISONING AND PROCEDURAL COMPLICATIONS",NA,1,"SCREENING 1",-7,"2012-08-25","1986",-13,NA,NA,NA,"BEFORE",NA,"SCREENING","FIRST DOSE OF STUDY DRUG",NA,NA
"115","CDISCPILOT01","MH","01-701-1111",3,"E03","VERBATIM_0835","ANKLE EDEMA","OEDEMA PERIPHERAL","HLT_0661","HLGT_0137","SIGNIFICANT PRE-EXISTING CONDITION","GENERAL DISORDERS AND ADMINISTRATION SITE CONDITIONS","MILD",1,"SCREENING 1",-7,"2012-08-25",NA,-13,NA,NA,NA,"BEFORE",NA,"SCREENING","FIRST DOSE OF STUDY DRUG",NA,NA
"116","CDISCPILOT01","MH","01-701-1111",25,NA,"VERBATIM_0846","SKIN TAGS","ACROCHORDON","HLT_0622","HLGT_0452","HISTORICAL DIAGNOSIS","NEOPLASMS BENIGN, MALIGNANT AND UNSPECIFIED (INCL CYSTS AND POLYPS)",NA,1,"SCREENING 1",-7,"2012-08-25","2006",-13,NA,NA,NA,"BEFORE",NA,"SCREENING","FIRST DOSE OF STUDY DRUG",NA,NA
"117","CDISCPILOT01","MH","01-701-1111",24,NA,"VERBATIM_0910","COUGH","COUGH","HLT_0701","HLGT_0280","HISTORICAL DIAGNOSIS","RESPIRATORY, THORACIC AND MEDIASTINAL DISORDERS",NA,1,"SCREENING 1",-7,"2012-08-25","2002",-13,NA,NA,NA,"BEFORE",NA,"SCREENING","FIRST DOSE OF STUDY DRUG",NA,NA
"118","CDISCPILOT01","MH","01-701-1111",27,NA,"VERBATIM_0951","BASAL CELL CARCINOMA","BASAL CELL CARCINOMA","HLT_0332","HLGT_0328","HISTORICAL DIAGNOSIS","NEOPLASMS BENIGN, MALIGNANT AND UNSPECIFIED (INCL CYSTS AND POLYPS)",NA,1,"SCREENING 1",-7,"2012-08-25","2007",-13,NA,NA,NA,"BEFORE",NA,"SCREENING","FIRST DOSE OF STUDY DRUG",NA,NA
"119","CDISCPILOT01","MH","01-701-1111",4,"E12","VERBATIM_1065","TINNITUS","TINNITUS","HLT_0570","HLGT_0180","SIGNIFICANT PRE-EXISTING CONDITION","EAR AND LABYRINTH DISORDERS","MILD",1,"SCREENING 1",-7,"2012-08-25",NA,-13,NA,NA,NA,"BEFORE",NA,"SCREENING","FIRST DOSE OF STUDY DRUG",NA,NA
"120","CDISCPILOT01","MH","01-701-1111",5,"E13","VERBATIM_1201","OSTEOPOROSIS","OSTEOPOROSIS","HLT_0381","HLGT_0634","SIGNIFICANT PRE-EXISTING CONDITION","MUSCULOSKELETAL AND CONNECTIVE TISSUE DISORDERS","MILD",1,"SCREENING 1",-7,"2012-08-25",NA,-13,NA,NA,NA,"BEFORE",NA,"SCREENING","FIRST DOSE OF STUDY DRUG",NA,NA
"121","CDISCPILOT01","MH","01-701-1111",6,"E06","VERBATIM_1224","LOCALIZED INFECTION","LOCALISED INFECTION","HLT_0435","HLGT_0557","SIGNIFICANT PRE-EXISTING CONDITION","INFECTIONS AND INFESTATIONS","MILD",1,"SCREENING 1",-7,"2012-08-25",NA,-13,NA,NA,NA,"BEFORE",NA,"SCREENING","FIRST DOSE OF STUDY DRUG",NA,NA
"122","CDISCPILOT01","MH","01-701-1111",20,NA,"VERBATIM_1261","KNEE FRACTURE","LOWER LIMB FRACTURE","HLT_0348","HLGT_0435","HISTORICAL DIAGNOSIS","INJURY, POISONING AND PROCEDURAL COMPLICATIONS",NA,1,"SCREENING 1",-7,"2012-08-25","1986",-13,NA,NA,NA,"BEFORE",NA,"SCREENING","FIRST DOSE OF STUDY DRUG",NA,NA
"123","CDISCPILOT01","MH","01-701-1111",7,"E07","VERBATIM_1309","ARTHRITIS","ARTHRITIS","HLT_0019","HLGT_0587","SIGNIFICANT PRE-EXISTING CONDITION","MUSCULOSKELETAL AND CONNECTIVE TISSUE DISORDERS","MILD",1,"SCREENING 1",-7,"2012-08-25",NA,-13,NA,NA,NA,"BEFORE",NA,"SCREENING","FIRST DOSE OF STUDY DRUG",NA,NA
"124","CDISCPILOT01","MH","01-701-1111",21,NA,"VERBATIM_1378","ELBOW FRACTURE","UPPER LIMB FRACTURE","HLT_0472","HLGT_0247","HISTORICAL DIAGNOSIS","INJURY, POISONING AND PROCEDURAL COMPLICATIONS",NA,1,"SCREENING 1",-7,"2012-08-25","1986",-13,NA,NA,NA,"BEFORE",NA,"SCREENING","FIRST DOSE OF STUDY DRUG",NA,NA
"125","CDISCPILOT01","MH","01-701-1111",8,"E10","VERBATIM_1384","EYEGLASSES WEARER","CORRECTIVE LENS USER","HLT_0776","HLGT_0407","SIGNIFICANT PRE-EXISTING CONDITION","SOCIAL CIRCUMSTANCES","MILD",1,"SCREENING 1",-7,"2012-08-25",NA,-13,NA,NA,NA,"BEFORE",NA,"SCREENING","FIRST DOSE OF STUDY DRUG",NA,NA
"126","CDISCPILOT01","MH","01-701-1111",22,NA,"VERBATIM_1407","FRACTURED RIBS","RIB FRACTURE","HLT_0292","HLGT_0583","HISTORICAL DIAGNOSIS","INJURY, POISONING AND PROCEDURAL COMPLICATIONS",NA,1,"SCREENING 1",-7,"2012-08-25","1986",-13,NA,NA,NA,"BEFORE",NA,"SCREENING","FIRST DOSE OF STUDY DRUG",NA,NA
"127","CDISCPILOT01","MH","01-701-1111",9,"E05","VERBATIM_1512","HYPOTHYROIDISM","HYPOTHYROIDISM","HLT_0454","HLGT_0558","SIGNIFICANT PRE-EXISTING CONDITION","ENDOCRINE DISORDERS","MILD",1,"SCREENING 1",-7,"2012-08-25",NA,-13,NA,NA,NA,"BEFORE",NA,"SCREENING","FIRST DOSE OF STUDY DRUG",NA,NA
"128","CDISCPILOT01","MH","01-701-1111",26,NA,"VERBATIM_1545","INCONTINENCE","INCONTINENCE","HLT_0560","HLGT_0503","HISTORICAL DIAGNOSIS","RENAL AND URINARY DISORDERS",NA,1,"SCREENING 1",-7,"2012-08-25","2006",-13,NA,NA,NA,"BEFORE",NA,"SCREENING","FIRST DOSE OF STUDY DRUG",NA,NA
"129","CDISCPILOT01","MH","01-701-1111",10,"E08","VERBATIM_1583","BACK PAIN","BACK PAIN","HLT_0115","HLGT_0508","SIGNIFICANT PRE-EXISTING CONDITION","MUSCULOSKELETAL AND CONNECTIVE TISSUE DISORDERS","MILD",1,"SCREENING 1",-7,"2012-08-25",NA,-13,NA,NA,NA,"BEFORE",NA,"SCREENING","FIRST DOSE OF STUDY DRUG",NA,NA
"130","CDISCPILOT01","MH","01-701-1111",11,"E02","VERBATIM_1589","VARICOSE VEINS","VARICOSE VEIN","HLT_0372","HLGT_0037","SIGNIFICANT PRE-EXISTING CONDITION","VASCULAR DISORDERS","MILD",1,"SCREENING 1",-7,"2012-08-25",NA,-13,NA,NA,NA,"BEFORE",NA,"SCREENING","FIRST DOSE OF STUDY DRUG",NA,NA
"131","CDISCPILOT01","MH","01-701-1111",12,"E01","VERBATIM_1641","HYPERTENSION","HYPERTENSION","HLT_0228","HLGT_0476","SIGNIFICANT PRE-EXISTING CONDITION","VASCULAR DISORDERS","MILD",1,"SCREENING 1",-7,"2012-08-25",NA,-13,NA,NA,NA,"BEFORE",NA,"SCREENING","FIRST DOSE OF STUDY DRUG",NA,NA
"132","CDISCPILOT01","MH","01-701-1111",13,"E09","VERBATIM_1769","SINUSITIS","SINUSITIS","HLT_0262","HLGT_0249","SIGNIFICANT PRE-EXISTING CONDITION","INFECTIONS AND INFESTATIONS","MILD",1,"SCREENING 1",-7,"2012-08-25",NA,-13,NA,NA,NA,"BEFORE",NA,"SCREENING","FIRST DOSE OF STUDY DRUG",NA,NA
"133","CDISCPILOT01","MH","01-701-1111",14,NA,"VERBATIM_1775","APPENDECTOMY","APPENDICECTOMY","HLT_0707","HLGT_0363","HISTORICAL DIAGNOSIS","SURGICAL AND MEDICAL PROCEDURES",NA,1,"SCREENING 1",-7,"2012-08-25","1946",-13,NA,NA,NA,"BEFORE",NA,"SCREENING","FIRST DOSE OF STUDY DRUG",NA,NA
"134","CDISCPILOT01","MH","01-701-1115",13,NA,"ALZHEIMER'S DISEASE",NA,NA,NA,NA,"PRIMARY DIAGNOSIS",NA,NA,1,"SCREENING 1",-7,"2012-11-23","2004-05-28",-7,"2004-07-16","Y","Y",NA,"BEFORE",NA,"SCREENING","BEFORE",NA
"135","CDISCPILOT01","MH","01-701-1115",1,"E06","VERBATIM_0014","NOCTURIA","NOCTURIA","HLT_0509","HLGT_0605","SIGNIFICANT PRE-EXISTING CONDITION","RENAL AND URINARY DISORDERS","MILD",1,"SCREENING 1",-7,"2012-11-23",NA,-7,NA,NA,NA,"BEFORE",NA,"SCREENING","FIRST DOSE OF STUDY DRUG",NA,NA
"136","CDISCPILOT01","MH","01-701-1115",2,"E08","VERBATIM_0261","POLYARTHRITIS","POLYARTHRITIS","HLT_0134","HLGT_0167","SIGNIFICANT PRE-EXISTING CONDITION","MUSCULOSKELETAL AND CONNECTIVE TISSUE DISORDERS","MILD",1,"SCREENING 1",-7,"2012-11-23",NA,-7,NA,NA,NA,"BEFORE",NA,"SCREENING","FIRST DOSE OF STUDY DRUG",NA,NA
"137","CDISCPILOT01","MH","01-701-1115",3,"E01","VERBATIM_0443","CONSTIPATION","CONSTIPATION","HLT_0402","HLGT_0635","SIGNIFICANT PRE-EXISTING CONDITION","GASTROINTESTINAL DISORDERS","MILD",1,"SCREENING 1",-7,"2012-11-23",NA,-7,NA,NA,NA,"BEFORE",NA,"SCREENING","FIRST DOSE OF STUDY DRUG",NA,NA
"138","CDISCPILOT01","MH","01-701-1115",10,NA,"VERBATIM_0470","PELVIC FRACTURE","PELVIC FRACTURE","HLT_0017","HLGT_0237","HISTORICAL DIAGNOSIS","INJURY, POISONING AND PROCEDURAL COMPLICATIONS",NA,1,"SCREENING 1",-7,"2012-11-23","1983",-7,NA,NA,NA,"BEFORE",NA,"SCREENING","FIRST DOSE OF STUDY DRUG",NA,NA
"139","CDISCPILOT01","MH","01-701-1115",11,NA,"VERBATIM_0714","SHINGLES","HERPES ZOSTER","HLT_0460","HLGT_0239","HISTORICAL DIAGNOSIS","INFECTIONS AND INFESTATIONS",NA,1,"SCREENING 1",-7,"2012-11-23","1986",-7,NA,NA,NA,"BEFORE",NA,"SCREENING","FIRST DOSE OF STUDY DRUG",NA,NA
"140","CDISCPILOT01","MH","01-701-1115",12,NA,"VERBATIM_0739","KIDNEY STONES","NEPHROLITHIASIS","HLT_0439","HLGT_0546","HISTORICAL DIAGNOSIS","RENAL AND URINARY DISORDERS",NA,1,"SCREENING 1",-7,"2012-11-23","1998",-7,NA,NA,NA,"BEFORE",NA,"SCREENING","FIRST DOSE OF STUDY DRUG",NA,NA
"141","CDISCPILOT01","MH","01-701-1115",4,"E05","VERBATIM_0773","DENTURE WEARER","DENTURE WEARER","HLT_0246","HLGT_0763","SIGNIFICANT PRE-EXISTING CONDITION","SOCIAL CIRCUMSTANCES","MILD",1,"SCREENING 1",-7,"2012-11-23",NA,-7,NA,NA,NA,"BEFORE",NA,"SCREENING","FIRST DOSE OF STUDY DRUG",NA,NA
"142","CDISCPILOT01","MH","01-701-1115",5,"E07","VERBATIM_1179","URINARY URGENCY","MICTURITION URGENCY","HLT_0294","HLGT_0483","SIGNIFICANT PRE-EXISTING CONDITION","RENAL AND URINARY DISORDERS","MILD",1,"SCREENING 1",-7,"2012-11-23",NA,-7,NA,NA,NA,"BEFORE",NA,"SCREENING","FIRST DOSE OF STUDY DRUG",NA,NA
"143","CDISCPILOT01","MH","01-701-1115",6,"E02","VERBATIM_1350","PROSTATITIS","PROSTATITIS","HLT_0749","HLGT_0104","SIGNIFICANT PRE-EXISTING CONDITION","REPRODUCTIVE SYSTEM AND BREAST DISORDERS","MILD",1,"SCREENING 1",-7,"2012-11-23",NA,-7,NA,NA,NA,"BEFORE",NA,"SCREENING","FIRST DOSE OF STUDY DRUG",NA,NA
"144","CDISCPILOT01","MH","01-701-1115",14,NA,"VERBATIM_1509","SHORTNESS OF BREATH","DYSPNOEA","HLT_0296","HLGT_0255","HISTORICAL DIAGNOSIS","RESPIRATORY, THORACIC AND MEDIASTINAL DISORDERS",NA,1,"SCREENING 1",-7,"2012-11-23","2011",-7,NA,NA,NA,"BEFORE",NA,"SCREENING","FIRST DOSE OF STUDY DRUG",NA,NA
"145","CDISCPILOT01","MH","01-701-1115",15,NA,"VERBATIM_1533","DIZZINESS","DIZZINESS","HLT_0619","HLGT_0751","HISTORICAL DIAGNOSIS","NERVOUS SYSTEM DISORDERS",NA,1,"SCREENING 1",-7,"2012-11-23","2011",-7,NA,NA,NA,"BEFORE",NA,"SCREENING","FIRST DOSE OF STUDY DRUG",NA,NA
"146","CDISCPILOT01","MH","01-701-1115",7,"E03","VERBATIM_1546","POLYARTHRITIS","POLYARTHRITIS","HLT_0134","HLGT_0167","SIGNIFICANT PRE-EXISTING CONDITION","MUSCULOSKELETAL AND CONNECTIVE TISSUE DISORDERS","MILD",1,"SCREENING 1",-7,"2012-11-23",NA,-7,NA,NA,NA,"BEFORE",NA,"SCREENING","FIRST DOSE OF STUDY DRUG",NA,NA
"147","CDISCPILOT01","MH","01-701-1115",9,NA,"VERBATIM_1716","TONSILLECTOMY","TONSILLECTOMY","HLT_0202","HLGT_0199","HISTORICAL DIAGNOSIS","SURGICAL AND MEDICAL PROCEDURES",NA,1,"SCREENING 1",-7,"2012-11-23","1934",-7,NA,NA,NA,"BEFORE",NA,"SCREENING","FIRST DOSE OF STUDY DRUG",NA,NA
"148","CDISCPILOT01","MH","01-701-1115",8,"E04","VERBATIM_1749","HYPEROPIA","HYPERMETROPIA","HLT_0546","HLGT_0646","SIGNIFICANT PRE-EXISTING CONDITION","EYE DISORDERS","MILD",1,"SCREENING 1",-7,"2012-11-23",NA,-7,NA,NA,NA,"BEFORE",NA,"SCREENING","FIRST DOSE OF STUDY DRUG",NA,NA
"149","CDISCPILOT01","MH","01-701-1118",8,NA,"ALZHEIMER'S DISEASE",NA,NA,NA,NA,"PRIMARY DIAGNOSIS",NA,NA,1,"SCREENING 1",-7,"2014-02-27","2010-06-24",-13,"2010-08-16","Y","Y",NA,"BEFORE",NA,"SCREENING","BEFORE",NA
"150","CDISCPILOT01","MH","01-701-1118",1,"E02","VERBATIM_0267","HEMORRHOIDS","HAEMORRHOIDS","HLT_0681","HLGT_0485","SIGNIFICANT PRE-EXISTING CONDITION","GASTROINTESTINAL DISORDERS","MILD",1,"SCREENING 1",-7,"2014-02-27",NA,-13,NA,NA,NA,"BEFORE",NA,"SCREENING","FIRST DOSE OF STUDY DRUG",NA,NA
"151","CDISCPILOT01","MH","01-701-1118",2,"E03","VERBATIM_0301","HEADACHE","HEADACHE","HLT_0064","HLGT_0344","SIGNIFICANT PRE-EXISTING CONDITION","NERVOUS SYSTEM DISORDERS","MODERATE",1,"SCREENING 1",-7,"2014-02-27",NA,-13,NA,NA,NA,"BEFORE",NA,"SCREENING","FIRST DOSE OF STUDY DRUG",NA,NA
"152","CDISCPILOT01","MH","01-701-1118",3,"E01","VERBATIM_0800","INDIGESTION","DYSPEPSIA","HLT_0244","HLGT_0716","SIGNIFICANT PRE-EXISTING CONDITION","GASTROINTESTINAL DISORDERS","MILD",1,"SCREENING 1",-7,"2014-02-27",NA,-13,NA,NA,NA,"BEFORE",NA,"SCREENING","FIRST DOSE OF STUDY DRUG",NA,NA
"153","CDISCPILOT01","MH","01-701-1118",7,NA,"VERBATIM_1371","WRIST FRACTURE","WRIST FRACTURE","HLT_0537","HLGT_0281","HISTORICAL DIAGNOSIS","INJURY, POISONING AND PROCEDURAL COMPLICATIONS",NA,1,"SCREENING 1",-7,"2014-02-27","1991",-13,NA,NA,NA,"BEFORE",NA,"SCREENING","FIRST DOSE OF STUDY DRUG",NA,NA
"154","CDISCPILOT01","MH","01-701-1118",6,NA,"VERBATIM_1514","PNEUMOTHORAX","PNEUMOTHORAX","HLT_0580","HLGT_0057","HISTORICAL DIAGNOSIS","RESPIRATORY, THORACIC AND MEDIASTINAL DISORDERS",NA,1,"SCREENING 1",-7,"2014-02-27","1988",-13,NA,NA,NA,"BEFORE",NA,"SCREENING","FIRST DOSE OF STUDY DRUG",NA,NA
"155","CDISCPILOT01","MH","01-701-1118",4,"E05","VERBATIM_1683","HYPEROPIA","HYPERMETROPIA","HLT_0546","HLGT_0646","SIGNIFICANT PRE-EXISTING CONDITION","EYE DISORDERS","MILD",1,"SCREENING 1",-7,"2014-02-27",NA,-13,NA,NA,NA,"BEFORE",NA,"SCREENING","FIRST DOSE OF STUDY DRUG",NA,NA
"156","CDISCPILOT01","MH","01-701-1118",5,"E04","VERBATIM_1769","SINUSITIS","SINUSITIS","HLT_0262","HLGT_0249","SIGNIFICANT PRE-EXISTING CONDITION","INFECTIONS AND INFESTATIONS","MILD",1,"SCREENING 1",-7,"2014-02-27",NA,-13,NA,NA,NA,"BEFORE",NA,"SCREENING","FIRST DOSE OF STUDY DRUG",NA,NA
"157","CDISCPILOT01","MH","01-701-1130",13,NA,"ALZHEIMER'S DISEASE",NA,NA,NA,NA,"PRIMARY DIAGNOSIS",NA,NA,1,"SCREENING 1",-7,"2014-02-09","2010-05-22",-6,"2010-09-04","Y","Y",NA,"BEFORE",NA,"SCREENING","BEFORE",NA
"158","CDISCPILOT01","MH","01-701-1130",1,"E03","VERBATIM_0025","HEARING LOSS UNILATERAL","DEAFNESS UNILATERAL","HLT_0521","HLGT_0683","SIGNIFICANT PRE-EXISTING CONDITION","EAR AND LABYRINTH DISORDERS","MILD",1,"SCREENING 1",-7,"2014-02-09",NA,-6,NA,NA,NA,"BEFORE",NA,"SCREENING","FIRST DOSE OF STUDY DRUG",NA,NA
"159","CDISCPILOT01","MH","01-701-1130",11,NA,"VERBATIM_0055","PROSTATECTOMY","PROSTATECTOMY","HLT_0532","HLGT_0559","HISTORICAL DIAGNOSIS","SURGICAL AND MEDICAL PROCEDURES",NA,1,"SCREENING 1",-7,"2014-02-09","2000",-6,NA,NA,NA,"BEFORE",NA,"SCREENING","FIRST DOSE OF STUDY DRUG",NA,NA
"160","CDISCPILOT01","MH","01-701-1130",12,NA,"VERBATIM_0154","PROSTATE CANCER","PROSTATE CANCER","HLT_0412","HLGT_0190","HISTORICAL DIAGNOSIS","NEOPLASMS BENIGN, MALIGNANT AND UNSPECIFIED (INCL CYSTS AND POLYPS)",NA,1,"SCREENING 1",-7,"2014-02-09","2000",-6,NA,NA,NA,"BEFORE",NA,"SCREENING","FIRST DOSE OF STUDY DRUG",NA,NA
"161","CDISCPILOT01","MH","01-701-1130",9,NA,"VERBATIM_0267","HEMORRHOIDS","HAEMORRHOIDS","HLT_0681","HLGT_0485","HISTORICAL DIAGNOSIS","GASTROINTESTINAL DISORDERS",NA,1,"SCREENING 1",-7,"2014-02-09","1987",-6,NA,NA,NA,"BEFORE",NA,"SCREENING","FIRST DOSE OF STUDY DRUG",NA,NA
"162","CDISCPILOT01","MH","01-701-1130",7,NA,"VERBATIM_0329","FEMUR FRACTURE","FEMUR FRACTURE","HLT_0349","HLGT_0542","HISTORICAL DIAGNOSIS","INJURY, POISONING AND PROCEDURAL COMPLICATIONS",NA,1,"SCREENING 1",-7,"2014-02-09","1977",-6,NA,NA,NA,"BEFORE",NA,"SCREENING","FIRST DOSE OF STUDY DRUG",NA,NA
"163","CDISCPILOT01","MH","01-701-1130",14,NA,"VERBATIM_0448","OTITIS EXTERNA","OTITIS EXTERNA","HLT_0673","HLGT_0404","HISTORICAL DIAGNOSIS","INFECTIONS AND INFESTATIONS",NA,1,"SCREENING 1",-7,"2014-02-09","2012-10",-6,NA,NA,NA,"BEFORE",NA,"SCREENING","FIRST DOSE OF STUDY DRUG",NA,NA
"164","CDISCPILOT01","MH","01-701-1130",15,NA,"VERBATIM_0463","LACERATION OF ARM","SKIN LACERATION","HLT_0075","HLGT_0118","HISTORICAL DIAGNOSIS","INJURY, POISONING AND PROCEDURAL COMPLICATIONS",NA,1,"SCREENING 1",-7,"2014-02-09","2014-01-15",-6,"2014-10-15",NA,NA,"BEFORE","ONGOING","SCREENING","FIRST DOSE OF STUDY DRUG","AFTER",NA
"165","CDISCPILOT01","MH","01-701-1130",2,"E04","VERBATIM_0773","DENTURE WEARER","DENTURE WEARER","HLT_0246","HLGT_0763","SIGNIFICANT PRE-EXISTING CONDITION","SOCIAL CIRCUMSTANCES","MILD",1,"SCREENING 1",-7,"2014-02-09",NA,-6,NA,NA,NA,"BEFORE",NA,"SCREENING","FIRST DOSE OF STUDY DRUG",NA,NA
"166","CDISCPILOT01","MH","01-701-1130",8,NA,"VERBATIM_0919","PNEUMONIA","PNEUMONIA","HLT_0251","HLGT_0671","HISTORICAL DIAGNOSIS","INFECTIONS AND INFESTATIONS",NA,1,"SCREENING 1",-7,"2014-02-09","1984",-6,NA,NA,NA,"BEFORE",NA,"SCREENING","FIRST DOSE OF STUDY DRUG",NA,NA
"167","CDISCPILOT01","MH","01-701-1130",10,NA,"VERBATIM_0919","PNEUMONIA","PNEUMONIA","HLT_0251","HLGT_0671","HISTORICAL DIAGNOSIS","INFECTIONS AND INFESTATIONS",NA,1,"SCREENING 1",-7,"2014-02-09","1989",-6,NA,NA,NA,"BEFORE",NA,"SCREENING","FIRST DOSE OF STUDY DRUG",NA,NA
"168","CDISCPILOT01","MH","01-701-1130",3,"E01","VERBATIM_1446","TINGLING","PARAESTHESIA","HLT_0481","HLGT_0534","SIGNIFICANT PRE-EXISTING CONDITION","NERVOUS SYSTEM DISORDERS","MILD",1,"SCREENING 1",-7,"2014-02-09",NA,-6,NA,NA,NA,"BEFORE",NA,"SCREENING","FIRST DOSE OF STUDY DRUG",NA,NA
"169","CDISCPILOT01","MH","01-701-1130",4,"E02","VERBATIM_1454","DRY SKIN","DRY SKIN","HLT_0028","HLGT_0096","SIGNIFICANT PRE-EXISTING CONDITION","SKIN AND SUBCUTANEOUS TISSUE DISORDERS","MILD",1,"SCREENING 1",-7,"2014-02-09",NA,-6,NA,NA,NA,"BEFORE",NA,"SCREENING","FIRST DOSE OF STUDY DRUG",NA,NA
"170","CDISCPILOT01","MH","01-701-1130",6,NA,"VERBATIM_1716","TONSILLECTOMY","TONSILLECTOMY","HLT_0202","HLGT_0199","HISTORICAL DIAGNOSIS","SURGICAL AND MEDICAL PROCEDURES",NA,1,"SCREENING 1",-7,"2014-02-09","1939",-6,NA,NA,NA,"BEFORE",NA,"SCREENING","FIRST DOSE OF STUDY DRUG",NA,NA
"171","CDISCPILOT01","MH","01-701-1130",5,"E05","VERBATIM_1751","ASTIGMATISM","ASTIGMATISM","HLT_0494","HLGT_0369","SIGNIFICANT PRE-EXISTING CONDITION","EYE DISORDERS","MILD",1,"SCREENING 1",-7,"2014-02-09",NA,-6,NA,NA,NA,"BEFORE",NA,"SCREENING","FIRST DOSE OF STUDY DRUG",NA,NA
"172","CDISCPILOT01","MH","01-701-1133",11,NA,"ALZHEIMER'S DISEASE",NA,NA,NA,NA,"PRIMARY DIAGNOSIS",NA,NA,1,"SCREENING 1",-7,"2012-10-23","2010-03-11",-5,"2010-12-01","Y","Y",NA,"BEFORE",NA,"SCREENING","BEFORE",NA
"173","CDISCPILOT01","MH","01-701-1133",10,NA,"VERBATIM_0009","KNEE TOTAL REPLACEMENT","KNEE ARTHROPLASTY","HLT_0710","HLGT_0078","HISTORICAL DIAGNOSIS","SURGICAL AND MEDICAL PROCEDURES",NA,1,"SCREENING 1",-7,"2012-10-23","2009-12",-5,NA,NA,NA,"BEFORE",NA,"SCREENING","FIRST DOSE OF STUDY DRUG",NA,NA
"174","CDISCPILOT01","MH","01-701-1133",9,NA,"VERBATIM_0267","HEMORRHOIDS","HAEMORRHOIDS","HLT_0681","HLGT_0485","HISTORICAL DIAGNOSIS","GASTROINTESTINAL DISORDERS",NA,1,"SCREENING 1",-7,"2012-10-23","2003",-5,NA,NA,NA,"BEFORE",NA,"SCREENING","FIRST DOSE OF STUDY DRUG",NA,NA
"175","CDISCPILOT01","MH","01-701-1133",5,NA,"VERBATIM_0293","WEIGHT LOSS","WEIGHT DECREASED","HLT_0158","HLGT_0778","HISTORICAL DIAGNOSIS","INVESTIGATIONS",NA,1,"SCREENING 1",-7,"2012-10-23","1966",-5,NA,NA,NA,"BEFORE",NA,"SCREENING","FIRST DOSE OF STUDY DRUG",NA,NA
"176","CDISCPILOT01","MH","01-701-1133",6,NA,"VERBATIM_0342","HYPERTENSION","HYPERTENSION","HLT_0228","HLGT_0476","HISTORICAL DIAGNOSIS","VASCULAR DISORDERS",NA,1,"SCREENING 1",-7,"2012-10-23","1986",-5,NA,NA,NA,"BEFORE",NA,"SCREENING","FIRST DOSE OF STUDY DRUG",NA,NA
"177","CDISCPILOT01","MH","01-701-1133",7,NA,"VERBATIM_0517","CHEST PAIN","CHEST PAIN","HLT_0717","HLGT_0195","HISTORICAL DIAGNOSIS","GENERAL DISORDERS AND ADMINISTRATION SITE CONDITIONS",NA,1,"SCREENING 1",-7,"2012-10-23","1986",-5,NA,NA,NA,"BEFORE",NA,"SCREENING","FIRST DOSE OF STUDY DRUG",NA,NA
"178","CDISCPILOT01","MH","01-701-1133",8,NA,"VERBATIM_1023","DIVERTICULOSIS","DIVERTICULUM","HLT_0069","HLGT_0141","HISTORICAL DIAGNOSIS","GASTROINTESTINAL DISORDERS",NA,1,"SCREENING 1",-7,"2012-10-23","2000",-5,NA,NA,NA,"BEFORE",NA,"SCREENING","FIRST DOSE OF STUDY DRUG",NA,NA
"179","CDISCPILOT01","MH","01-701-1133",1,"E01","VERBATIM_1121","POLYARTHRITIS","POLYARTHRITIS","HLT_0134","HLGT_0167","SIGNIFICANT PRE-EXISTING CONDITION","MUSCULOSKELETAL AND CONNECTIVE TISSUE DISORDERS","MILD",1,"SCREENING 1",-7,"2012-10-23",NA,-5,NA,NA,NA,"BEFORE",NA,"SCREENING","FIRST DOSE OF STUDY DRUG",NA,NA
"180","CDISCPILOT01","MH","01-701-1133",2,"E02","VERBATIM_1683","HYPEROPIA","HYPERMETROPIA","HLT_0546","HLGT_0646","SIGNIFICANT PRE-EXISTING CONDITION","EYE DISORDERS","MILD",1,"SCREENING 1",-7,"2012-10-23",NA,-5,NA,NA,NA,"BEFORE",NA,"SCREENING","FIRST DOSE OF STUDY DRUG",NA,NA
"181","CDISCPILOT01","MH","01-701-1133",4,NA,"VERBATIM_1716","TONSILLECTOMY","TONSILLECTOMY","HLT_0202","HLGT_0199","HISTORICAL DIAGNOSIS","SURGICAL AND MEDICAL PROCEDURES",NA,1,"SCREENING 1",-7,"2012-10-23","1939",-5,NA,NA,NA,"BEFORE",NA,"SCREENING","FIRST DOSE OF STUDY DRUG",NA,NA
"182","CDISCPILOT01","MH","01-701-1133",3,"E03","VERBATIM_1796","DENTURE WEARER","DENTURE WEARER","HLT_0246","HLGT_0763","SIGNIFICANT PRE-EXISTING CONDITION","SOCIAL CIRCUMSTANCES","MILD",1,"SCREENING 1",-7,"2012-10-23",NA,-5,NA,NA,NA,"BEFORE",NA,"SCREENING","FIRST DOSE OF STUDY DRUG",NA,NA
"183","CDISCPILOT01","MH","01-701-1146",11,NA,"ALZHEIMER'S DISEASE",NA,NA,NA,NA,"PRIMARY DIAGNOSIS",NA,NA,1,"SCREENING 1",-7,"2013-05-07","2009-11-17",-13,"2010-03-23","Y","Y",NA,"BEFORE",NA,"SCREENING","BEFORE",NA
"184","CDISCPILOT01","MH","01-701-1146",1,"E02","VERBATIM_0325","POLYARTHRITIS","POLYARTHRITIS","HLT_0134","HLGT_0167","SIGNIFICANT PRE-EXISTING CONDITION","MUSCULOSKELETAL AND CONNECTIVE TISSUE DISORDERS","MILD",1,"SCREENING 1",-7,"2013-05-07",NA,-13,NA,NA,NA,"BEFORE",NA,"SCREENING","FIRST DOSE OF STUDY DRUG",NA,NA
"185","CDISCPILOT01","MH","01-701-1146",17,NA,"VERBATIM_0361","BLADDER INFECTION","CYSTITIS","HLT_0739","HLGT_0129","HISTORICAL DIAGNOSIS","INFECTIONS AND INFESTATIONS",NA,1,"SCREENING 1",-7,"2013-05-07","2012-10-27",-13,"2013-02-20",NA,NA,"BEFORE","BEFORE","SCREENING","FIRST DOSE OF STUDY DRUG","BEFORE",NA
"186","CDISCPILOT01","MH","01-701-1146",2,"E05","VERBATIM_0391","HEARING LOSS","DEAFNESS","HLT_0234","HLGT_0025","SIGNIFICANT PRE-EXISTING CONDITION","EAR AND LABYRINTH DISORDERS","MILD",1,"SCREENING 1",-7,"2013-05-07",NA,-13,NA,NA,NA,"BEFORE",NA,"SCREENING","FIRST DOSE OF STUDY DRUG",NA,NA
"187","CDISCPILOT01","MH","01-701-1146",3,"E01","VERBATIM_0443","CONSTIPATION","CONSTIPATION","HLT_0402","HLGT_0635","SIGNIFICANT PRE-EXISTING CONDITION","GASTROINTESTINAL DISORDERS","MILD",1,"SCREENING 1",-7,"2013-05-07",NA,-13,NA,NA,NA,"BEFORE",NA,"SCREENING","FIRST DOSE OF STUDY DRUG",NA,NA
"188","CDISCPILOT01","MH","01-701-1146",14,NA,"VERBATIM_0517","CHEST PAIN","CHEST PAIN","HLT_0717","HLGT_0195","HISTORICAL DIAGNOSIS","GENERAL DISORDERS AND ADMINISTRATION SITE CONDITIONS",NA,1,"SCREENING 1",-7,"2013-05-07","2012-03-27",-13,"2012-08-04",NA,NA,"BEFORE","BEFORE","SCREENING","FIRST DOSE OF STUDY DRUG","BEFORE",NA
"189","CDISCPILOT01","MH","01-701-1146",10,NA,"VERBATIM_0815","BLADDER PROLAPSE","BLADDER PROLAPSE","HLT_0502","HLGT_0048","HISTORICAL DIAGNOSIS","RENAL AND URINARY DISORDERS",NA,1,"SCREENING 1",-7,"2013-05-07","2006",-13,NA,NA,NA,"BEFORE",NA,"SCREENING","FIRST DOSE OF STUDY DRUG",NA,NA
"190","CDISCPILOT01","MH","01-701-1146",13,NA,"VERBATIM_0815","BLADDER PROLAPSE","BLADDER PROLAPSE","HLT_0502","HLGT_0048","HISTORICAL DIAGNOSIS","RENAL AND URINARY DISORDERS",NA,1,"SCREENING 1",-7,"2013-05-07","2012",-13,NA,NA,NA,"BEFORE",NA,"SCREENING","FIRST DOSE OF STUDY DRUG",NA,NA
"191","CDISCPILOT01","MH","01-701-1146",15,NA,"VERBATIM_0821","ABDOMINAL DISCOMFORT","ABDOMINAL DISCOMFORT","HLT_0012","HLGT_0332","HISTORICAL DIAGNOSIS","GASTROINTESTINAL DISORDERS",NA,1,"SCREENING 1",-7,"2013-05-07","2012-07-06",-13,"2013-04-05",NA,NA,"BEFORE","BEFORE","SCREENING","FIRST DOSE OF STUDY DRUG","BEFORE",NA
"192","CDISCPILOT01","MH","01-701-1146",16,NA,"VERBATIM_1066","ROOT CANAL PROCEDURE","ENDODONTIC PROCEDURE","HLT_0153","HLGT_0539","HISTORICAL DIAGNOSIS","SURGICAL AND MEDICAL PROCEDURES",NA,1,"SCREENING 1",-7,"2013-05-07","2012-09-12",-13,"2013-04-12",NA,NA,"BEFORE","BEFORE","SCREENING","FIRST DOSE OF STUDY DRUG","BEFORE",NA
"193","CDISCPILOT01","MH","01-701-1146",12,NA,"VERBATIM_1117","ESOPHAGEAL SPASM","OESOPHAGEAL SPASM","HLT_0112","HLGT_0697","HISTORICAL DIAGNOSIS","GASTROINTESTINAL DISORDERS",NA,1,"SCREENING 1",-7,"2013-05-07","2011",-13,NA,NA,NA,"BEFORE",NA,"SCREENING","FIRST DOSE OF STUDY DRUG",NA,NA
"194","CDISCPILOT01","MH","01-701-1146",4,"E07","VERBATIM_1126","DIARRHEA","DIARRHOEA","HLT_0148","HLGT_0588","SIGNIFICANT PRE-EXISTING CONDITION","GASTROINTESTINAL DISORDERS","MILD",1,"SCREENING 1",-7,"2013-05-07",NA,-13,NA,NA,NA,"BEFORE",NA,"SCREENING","FIRST DOSE OF STUDY DRUG",NA,NA
"195","CDISCPILOT01","MH","01-701-1146",5,"E08","VERBATIM_1223","HEART MURMUR","CARDIAC MURMUR","HLT_0085","HLGT_0133","SIGNIFICANT PRE-EXISTING CONDITION","INVESTIGATIONS","MILD",1,"SCREENING 1",-7,"2013-05-07",NA,-13,NA,NA,NA,"BEFORE",NA,"SCREENING","FIRST DOSE OF STUDY DRUG",NA,NA
"196","CDISCPILOT01","MH","01-701-1146",6,"E06","VERBATIM_1376","DEPRESSION","DEPRESSION","HLT_0167","HLGT_0582","SIGNIFICANT PRE-EXISTING CONDITION","PSYCHIATRIC DISORDERS","MILD",1,"SCREENING 1",-7,"2013-05-07",NA,-13,NA,NA,NA,"BEFORE",NA,"SCREENING","FIRST DOSE OF STUDY DRUG",NA,NA
"197","CDISCPILOT01","MH","01-701-1146",7,"E03","VERBATIM_1441","KNEE PAIN","ARTHRALGIA","HLT_0375","HLGT_0610","SIGNIFICANT PRE-EXISTING CONDITION","MUSCULOSKELETAL AND CONNECTIVE TISSUE DISORDERS","MILD",1,"SCREENING 1",-7,"2013-05-07",NA,-13,NA,NA,NA,"BEFORE",NA,"SCREENING","FIRST DOSE OF STUDY DRUG",NA,NA
"198","CDISCPILOT01","MH","01-701-1146",9,NA,"VERBATIM_1716","TONSILLECTOMY","TONSILLECTOMY","HLT_0202","HLGT_0199","HISTORICAL DIAGNOSIS","SURGICAL AND MEDICAL PROCEDURES",NA,1,"SCREENING 1",-7,"2013-05-07","1942",-13,NA,NA,NA,"BEFORE",NA,"SCREENING","FIRST DOSE OF STUDY DRUG",NA,NA
"199","CDISCPILOT01","MH","01-701-1146",8,"E04","VERBATIM_1769","SINUSITIS","SINUSITIS","HLT_0262","HLGT_0249","SIGNIFICANT PRE-EXISTING CONDITION","INFECTIONS AND INFESTATIONS","MILD",1,"SCREENING 1",-7,"2013-05-07",NA,-13,NA,NA,NA,"BEFORE",NA,"SCREENING","FIRST DOSE OF STUDY DRUG",NA,NA
"200","CDISCPILOT01","MH","01-701-1148",29,NA,"ALZHEIMER'S DISEASE",NA,NA,NA,NA,"PRIMARY DIAGNOSIS",NA,NA,1,"SCREENING 1",-7,"2013-08-14","2010-12-12",-9,"2011-10-13","Y","Y",NA,"BEFORE",NA,"SCREENING","BEFORE",NA
"201","CDISCPILOT01","MH","01-701-1148",25,NA,"VERBATIM_0036","BURN","THERMAL BURN","HLT_0092","HLGT_0447","HISTORICAL DIAGNOSIS","INJURY, POISONING AND PROCEDURAL COMPLICATIONS",NA,1,"SCREENING 1",-7,"2013-08-14","1996",-9,NA,NA,NA,"BEFORE",NA,"SCREENING","FIRST DOSE OF STUDY DRUG",NA,NA
"202","CDISCPILOT01","MH","01-701-1148",1,"E17","VERBATIM_0047","TINNITUS","TINNITUS","HLT_0570","HLGT_0180","SIGNIFICANT PRE-EXISTING CONDITION","EAR AND LABYRINTH DISORDERS","MILD",1,"SCREENING 1",-7,"2013-08-14",NA,-9,NA,NA,NA,"BEFORE",NA,"SCREENING","FIRST DOSE OF STUDY DRUG",NA,NA
"203","CDISCPILOT01","MH","01-701-1148",22,NA,"VERBATIM_0146","ANKLE FRACTURE","ANKLE FRACTURE","HLT_0208","HLGT_0252","HISTORICAL DIAGNOSIS","INJURY, POISONING AND PROCEDURAL COMPLICATIONS",NA,1,"SCREENING 1",-7,"2013-08-14","1985",-9,NA,NA,NA,"BEFORE",NA,"SCREENING","FIRST DOSE OF STUDY DRUG",NA,NA
"204","CDISCPILOT01","MH","01-701-1148",2,"E01","VERBATIM_0266","PALPITATIONS","PALPITATIONS","HLT_0493","HLGT_0593","SIGNIFICANT PRE-EXISTING CONDITION","CARDIAC DISORDERS","MILD",1,"SCREENING 1",-7,"2013-08-14",NA,-9,NA,NA,NA,"BEFORE",NA,"SCREENING","FIRST DOSE OF STUDY DRUG",NA,NA
"205","CDISCPILOT01","MH","01-701-1148",3,"E04","VERBATIM_0301","HEADACHE","HEADACHE","HLT_0064","HLGT_0344","SIGNIFICANT PRE-EXISTING CONDITION","NERVOUS SYSTEM DISORDERS","MILD",1,"SCREENING 1",-7,"2013-08-14",NA,-9,NA,NA,NA,"BEFORE",NA,"SCREENING","FIRST DOSE OF STUDY DRUG",NA,NA
"206","CDISCPILOT01","MH","01-701-1148",24,NA,"VERBATIM_0305","BREAST LUMP REMOVAL","BREAST LUMP REMOVAL","HLT_0100","HLGT_0742","HISTORICAL DIAGNOSIS","SURGICAL AND MEDICAL PROCEDURES",NA,1,"SCREENING 1",-7,"2013-08-14","1991",-9,NA,NA,NA,"BEFORE",NA,"SCREENING","FIRST DOSE OF STUDY DRUG",NA,NA
"207","CDISCPILOT01","MH","01-701-1148",4,"E07","VERBATIM_0383","NUMBNESS IN SHOULDER","HYPOAESTHESIA","HLT_0014","HLGT_0528","SIGNIFICANT PRE-EXISTING CONDITION","NERVOUS SYSTEM DISORDERS","MILD",1,"SCREENING 1",-7,"2013-08-14",NA,-9,NA,NA,NA,"BEFORE",NA,"SCREENING","FIRST DOSE OF STUDY DRUG",NA,NA
"208","CDISCPILOT01","MH","01-701-1148",5,"E22","VERBATIM_0396","HAY FEVER","SEASONAL ALLERGY","HLT_0714","HLGT_0782","SIGNIFICANT PRE-EXISTING CONDITION","IMMUNE SYSTEM DISORDERS","MILD",1,"SCREENING 1",-7,"2013-08-14",NA,-9,NA,NA,NA,"BEFORE",NA,"SCREENING","FIRST DOSE OF STUDY DRUG",NA,NA
"209","CDISCPILOT01","MH","01-701-1148",6,"E16","VERBATIM_0453","NERVE PAIN","NEURALGIA","HLT_0486","HLGT_0172","SIGNIFICANT PRE-EXISTING CONDITION","NERVOUS SYSTEM DISORDERS","MILD",1,"SCREENING 1",-7,"2013-08-14",NA,-9,NA,NA,NA,"BEFORE",NA,"SCREENING","FIRST DOSE OF STUDY DRUG",NA,NA
"210","CDISCPILOT01","MH","01-701-1148",7,"E11","VERBATIM_0461","MUSCULAR PAIN","MYALGIA","HLT_0700","HLGT_0121","SIGNIFICANT PRE-EXISTING CONDITION","MUSCULOSKELETAL AND CONNECTIVE TISSUE DISORDERS","MILD",1,"SCREENING 1",-7,"2013-08-14",NA,-9,NA,NA,NA,"BEFORE",NA,"SCREENING","FIRST DOSE OF STUDY DRUG",NA,NA
"211","CDISCPILOT01","MH","01-701-1148",8,"E26","VERBATIM_0591","DEPRESSED MOOD","DEPRESSED MOOD","HLT_0784","HLGT_0122","SIGNIFICANT PRE-EXISTING CONDITION","PSYCHIATRIC DISORDERS","MILD",1,"SCREENING 1",-7,"2013-08-14",NA,-9,NA,NA,NA,"BEFORE",NA,"SCREENING","FIRST DOSE OF STUDY DRUG",NA,NA
"212","CDISCPILOT01","MH","01-701-1148",23,NA,"VERBATIM_0598","ANAL FISTULA","ANAL FISTULA","HLT_0653","HLGT_0268","HISTORICAL DIAGNOSIS","GASTROINTESTINAL DISORDERS",NA,1,"SCREENING 1",-7,"2013-08-14","1989",-9,NA,NA,NA,"BEFORE",NA,"SCREENING","FIRST DOSE OF STUDY DRUG",NA,NA
"213","CDISCPILOT01","MH","01-701-1148",27,NA,"VERBATIM_0598","ANAL FISTULA","ANAL FISTULA","HLT_0653","HLGT_0268","HISTORICAL DIAGNOSIS","GASTROINTESTINAL DISORDERS",NA,1,"SCREENING 1",-7,"2013-08-14","2007",-9,NA,NA,NA,"BEFORE",NA,"SCREENING","FIRST DOSE OF STUDY DRUG",NA,NA
"214","CDISCPILOT01","MH","01-701-1148",9,"E06","VERBATIM_0617","NUMBNESS IN FINGERS","HYPOAESTHESIA","HLT_0014","HLGT_0528","SIGNIFICANT PRE-EXISTING CONDITION","NERVOUS SYSTEM DISORDERS","MILD",1,"SCREENING 1",-7,"2013-08-14",NA,-9,NA,NA,NA,"BEFORE",NA,"SCREENING","FIRST DOSE OF STUDY DRUG",NA,NA
"215","CDISCPILOT01","MH","01-701-1148",10,"E03","VERBATIM_0800","INDIGESTION","DYSPEPSIA","HLT_0244","HLGT_0716","SIGNIFICANT PRE-EXISTING CONDITION","GASTROINTESTINAL DISORDERS","MILD",1,"SCREENING 1",-7,"2013-08-14",NA,-9,NA,NA,NA,"BEFORE",NA,"SCREENING","FIRST DOSE OF STUDY DRUG",NA,NA
"216","CDISCPILOT01","MH","01-701-1148",28,NA,"VERBATIM_0807","SINUS OPERATION","SINUS OPERATION","HLT_0259","HLGT_0573","HISTORICAL DIAGNOSIS","SURGICAL AND MEDICAL PROCEDURES",NA,1,"SCREENING 1",-7,"2013-08-14","2010",-9,NA,NA,NA,"BEFORE",NA,"SCREENING","FIRST DOSE OF STUDY DRUG",NA,NA
"217","CDISCPILOT01","MH","01-701-1148",11,"E14","VERBATIM_0978","HEARING LOSS BILATERAL","DEAFNESS BILATERAL","HLT_0567","HLGT_0426","SIGNIFICANT PRE-EXISTING CONDITION","EAR AND LABYRINTH DISORDERS","MILD",1,"SCREENING 1",-7,"2013-08-14",NA,-9,NA,NA,NA,"BEFORE",NA,"SCREENING","FIRST DOSE OF STUDY DRUG",NA,NA
"218","CDISCPILOT01","MH","01-701-1148",12,"E19","VERBATIM_0982","FELT FAINT","DIZZINESS","HLT_0619","HLGT_0751","SIGNIFICANT PRE-EXISTING CONDITION","NERVOUS SYSTEM DISORDERS","MILD",1,"SCREENING 1",-7,"2013-08-14",NA,-9,NA,NA,NA,"BEFORE",NA,"SCREENING","FIRST DOSE OF STUDY DRUG",NA,NA
"219","CDISCPILOT01","MH","01-701-1148",13,"E15","VERBATIM_1073","MUSCULAR PAIN","MYALGIA","HLT_0700","HLGT_0121","SIGNIFICANT PRE-EXISTING CONDITION","MUSCULOSKELETAL AND CONNECTIVE TISSUE DISORDERS","MILD",1,"SCREENING 1",-7,"2013-08-14",NA,-9,NA,NA,NA,"BEFORE",NA,"SCREENING","FIRST DOSE OF STUDY DRUG",NA,NA
"220","CDISCPILOT01","MH","01-701-1148",30,NA,"VERBATIM_1160","ACTINIC KERATOSIS","ACTINIC KERATOSIS","HLT_0609","HLGT_0490","HISTORICAL DIAGNOSIS","SKIN AND SUBCUTANEOUS TISSUE DISORDERS",NA,1,"SCREENING 1",-7,"2013-08-14","2011",-9,NA,NA,NA,"BEFORE",NA,"SCREENING","FIRST DOSE OF STUDY DRUG",NA,NA
"221","CDISCPILOT01","MH","01-701-1148",14,"E09","VERBATIM_1168","POLYARTHRITIS","POLYARTHRITIS","HLT_0134","HLGT_0167","SIGNIFICANT PRE-EXISTING CONDITION","MUSCULOSKELETAL AND CONNECTIVE TISSUE DISORDERS","MILD",1,"SCREENING 1",-7,"2013-08-14",NA,-9,NA,NA,NA,"BEFORE",NA,"SCREENING","FIRST DOSE OF STUDY DRUG",NA,NA
"222","CDISCPILOT01","MH","01-701-1148",15,"E12","VERBATIM_1213","NERVE PAIN","NEURALGIA","HLT_0486","HLGT_0172","SIGNIFICANT PRE-EXISTING CONDITION","NERVOUS SYSTEM DISORDERS","MILD",1,"SCREENING 1",-7,"2013-08-14",NA,-9,NA,NA,NA,"BEFORE",NA,"SCREENING","FIRST DOSE OF STUDY DRUG",NA,NA
"223","CDISCPILOT01","MH","01-701-1148",16,"E02","VERBATIM_1509","SHORTNESS OF BREATH","DYSPNOEA","HLT_0296","HLGT_0255","SIGNIFICANT PRE-EXISTING CONDITION","RESPIRATORY, THORACIC AND MEDIASTINAL DISORDERS","MILD",1,"SCREENING 1",-7,"2013-08-14",NA,-9,NA,NA,NA,"BEFORE",NA,"SCREENING","FIRST DOSE OF STUDY DRUG",NA,NA
"224","CDISCPILOT01","MH","01-701-1148",17,"E08","VERBATIM_1533","DIZZINESS","DIZZINESS","HLT_0619","HLGT_0751","SIGNIFICANT PRE-EXISTING CONDITION","NERVOUS SYSTEM DISORDERS","MILD",1,"SCREENING 1",-7,"2013-08-14",NA,-9,NA,NA,NA,"BEFORE",NA,"SCREENING","FIRST DOSE OF STUDY DRUG",NA,NA
"225","CDISCPILOT01","MH","01-701-1148",26,NA,"VERBATIM_1550","SKIN GRAFT","SKIN GRAFT","HLT_0392","HLGT_0390","HISTORICAL DIAGNOSIS","SURGICAL AND MEDICAL PROCEDURES",NA,1,"SCREENING 1",-7,"2013-08-14","1996",-9,NA,NA,NA,"BEFORE",NA,"SCREENING","FIRST DOSE OF STUDY DRUG",NA,NA
"226","CDISCPILOT01","MH","01-701-1148",18,"E05","VERBATIM_1576","NUMBNESS OF UPPER ARM","HYPOAESTHESIA","HLT_0014","HLGT_0528","SIGNIFICANT PRE-EXISTING CONDITION","NERVOUS SYSTEM DISORDERS","MILD",1,"SCREENING 1",-7,"2013-08-14",NA,-9,NA,NA,NA,"BEFORE",NA,"SCREENING","FIRST DOSE OF STUDY DRUG",NA,NA
"227","CDISCPILOT01","MH","01-701-1148",19,"E10","VERBATIM_1583","BACK PAIN","BACK PAIN","HLT_0115","HLGT_0508","SIGNIFICANT PRE-EXISTING CONDITION","MUSCULOSKELETAL AND CONNECTIVE TISSUE DISORDERS","MILD",1,"SCREENING 1",-7,"2013-08-14",NA,-9,NA,NA,NA,"BEFORE",NA,"SCREENING","FIRST DOSE OF STUDY DRUG",NA,NA
"228","CDISCPILOT01","MH","01-701-1148",20,"E18","VERBATIM_1751","ASTIGMATISM","ASTIGMATISM","HLT_0494","HLGT_0369","SIGNIFICANT PRE-EXISTING CONDITION","EYE DISORDERS","MILD",1,"SCREENING 1",-7,"2013-08-14",NA,-9,NA,NA,NA,"BEFORE",NA,"SCREENING","FIRST DOSE OF STUDY DRUG",NA,NA
"229","CDISCPILOT01","MH","01-701-1148",21,"E13","VERBATIM_1769","SINUSITIS","SINUSITIS","HLT_0262","HLGT_0249","SIGNIFICANT PRE-EXISTING CONDITION","INFECTIONS AND INFESTATIONS","MILD",1,"SCREENING 1",-7,"2013-08-14",NA,-9,NA,NA,NA,"BEFORE",NA,"SCREENING","FIRST DOSE OF STUDY DRUG",NA,NA
"230","CDISCPILOT01","MH","01-701-1153",7,NA,"ALZHEIMER'S DISEASE",NA,NA,NA,NA,"PRIMARY DIAGNOSIS",NA,NA,1,"SCREENING 1",-7,"2013-09-06","2005-05-13",-17,"2005-05-28","Y","Y",NA,"BEFORE",NA,"SCREENING","BEFORE",NA
"231","CDISCPILOT01","MH","01-701-1153",6,NA,"VERBATIM_0120","ANEMIA","ANAEMIA","HLT_0378","HLGT_0230","HISTORICAL DIAGNOSIS","BLOOD AND LYMPHATIC SYSTEM DISORDERS",NA,1,"SCREENING 1",-7,"2013-09-06","1977",-17,NA,NA,NA,"BEFORE",NA,"SCREENING","FIRST DOSE OF STUDY DRUG",NA,NA
"232","CDISCPILOT01","MH","01-701-1153",8,NA,"VERBATIM_0239","SKIN NEOPLASM EXCISION","SKIN NEOPLASM EXCISION","HLT_0482","HLGT_0467","HISTORICAL DIAGNOSIS","SURGICAL AND MEDICAL PROCEDURES",NA,1,"SCREENING 1",-7,"2013-09-06","2010",-17,NA,NA,NA,"BEFORE",NA,"SCREENING","FIRST DOSE OF STUDY DRUG",NA,NA
"233","CDISCPILOT01","MH","01-701-1153",1,"E02","VERBATIM_0301","HEADACHE","HEADACHE","HLT_0064","HLGT_0344","SIGNIFICANT PRE-EXISTING CONDITION","NERVOUS SYSTEM DISORDERS","MILD",1,"SCREENING 1",-7,"2013-09-06",NA,-17,NA,NA,NA,"BEFORE",NA,"SCREENING","FIRST DOSE OF STUDY DRUG",NA,NA
"234","CDISCPILOT01","MH","01-701-1153",2,"E03","VERBATIM_0390","INCREASED TENDENCY TO BRUISE","INCREASED TENDENCY TO BRUISE","HLT_0359","HLGT_0091","SIGNIFICANT PRE-EXISTING CONDITION","SKIN AND SUBCUTANEOUS TISSUE DISORDERS","MILD",1,"SCREENING 1",-7,"2013-09-06",NA,-17,NA,NA,NA,"BEFORE",NA,"SCREENING","FIRST DOSE OF STUDY DRUG",NA,NA
"235","CDISCPILOT01","MH","01-701-1153",9,NA,"VERBATIM_0688","CARCINOMA SKIN","SKIN CANCER","HLT_0382","HLGT_0439","HISTORICAL DIAGNOSIS","NEOPLASMS BENIGN, MALIGNANT AND UNSPECIFIED (INCL CYSTS AND POLYPS)",NA,1,"SCREENING 1",-7,"2013-09-06","2010",-17,NA,NA,NA,"BEFORE",NA,"SCREENING","FIRST DOSE OF STUDY DRUG",NA,NA
"236","CDISCPILOT01","MH","01-701-1153",3,"E01","VERBATIM_0705","ANKLE EDEMA","OEDEMA PERIPHERAL","HLT_0661","HLGT_0137","SIGNIFICANT PRE-EXISTING CONDITION","GENERAL DISORDERS AND ADMINISTRATION SITE CONDITIONS","MILD",1,"SCREENING 1",-7,"2013-09-06",NA,-17,NA,NA,NA,"BEFORE",NA,"SCREENING","FIRST DOSE OF STUDY DRUG",NA,NA
"237","CDISCPILOT01","MH","01-701-1153",4,"E04","VERBATIM_1443","NECK PAIN","NECK PAIN","HLT_0203","HLGT_0367","SIGNIFICANT PRE-EXISTING CONDITION","MUSCULOSKELETAL AND CONNECTIVE TISSUE DISORDERS","MILD",1,"SCREENING 1",-7,"2013-09-06",NA,-17,NA,NA,NA,"BEFORE",NA,"SCREENING","FIRST DOSE OF STUDY DRUG",NA,NA
"238","CDISCPILOT01","MH","01-701-1153",5,"E05","VERBATIM_1751","ASTIGMATISM","ASTIGMATISM","HLT_0494","HLGT_0369","SIGNIFICANT PRE-EXISTING CONDITION","EYE DISORDERS","MILD",1,"SCREENING 1",-7,"2013-09-06",NA,-17,NA,NA,NA,"BEFORE",NA,"SCREENING","FIRST DOSE OF STUDY DRUG",NA,NA
"239","CDISCPILOT01","MH","01-701-1153",10,NA,"VERBATIM_1769","SINUSITIS","SINUSITIS","HLT_0262","HLGT_0249","HISTORICAL DIAGNOSIS","INFECTIONS AND INFESTATIONS",NA,1,"SCREENING 1",-7,"2013-09-06","2011",-17,NA,NA,NA,"BEFORE",NA,"SCREENING","FIRST DOSE OF STUDY DRUG",NA,NA
"240","CDISCPILOT01","MH","01-701-1180",2,NA,"ALZHEIMER'S DISEASE",NA,NA,NA,NA,"PRIMARY DIAGNOSIS",NA,NA,1,"SCREENING 1",-7,"2013-01-28","2008-09-21",-15,"2009-03-25","Y","Y",NA,"BEFORE",NA,"SCREENING","BEFORE",NA
"241","CDISCPILOT01","MH","01-701-1180",1,"E04","VERBATIM_0929","HEADACHE","HEADACHE","HLT_0064","HLGT_0344","SIGNIFICANT PRE-EXISTING CONDITION","NERVOUS SYSTEM DISORDERS","MILD",1,"SCREENING 1",-7,"2013-01-28",NA,-15,NA,NA,NA,"BEFORE",NA,"SCREENING","FIRST DOSE OF STUDY DRUG",NA,NA
"242","CDISCPILOT01","MH","01-701-1181",22,NA,"ALZHEIMER'S DISEASE",NA,NA,NA,NA,"PRIMARY DIAGNOSIS",NA,NA,1,"SCREENING 1",-7,"2013-11-26","2008-08-26",-9,"2009-01-26","Y","Y",NA,"BEFORE",NA,"SCREENING","BEFORE",NA
"243","CDISCPILOT01","MH","01-701-1181",1,"E05","VERBATIM_0048","PAIN TRAUMA ACTIVATED","PAIN TRAUMA ACTIVATED","HLT_0579","HLGT_0732","SIGNIFICANT PRE-EXISTING CONDITION","INJURY, POISONING AND PROCEDURAL COMPLICATIONS","MILD",1,"SCREENING 1",-7,"2013-11-26",NA,-9,NA,NA,NA,"BEFORE",NA,"SCREENING","FIRST DOSE OF STUDY DRUG",NA,NA
"244","CDISCPILOT01","MH","01-701-1181",2,"E04","VERBATIM_0062","PAIN TRAUMA ACTIVATED","PAIN TRAUMA ACTIVATED","HLT_0579","HLGT_0732","SIGNIFICANT PRE-EXISTING CONDITION","INJURY, POISONING AND PROCEDURAL COMPLICATIONS","MILD",1,"SCREENING 1",-7,"2013-11-26",NA,-9,NA,NA,NA,"BEFORE",NA,"SCREENING","FIRST DOSE OF STUDY DRUG",NA,NA
"245","CDISCPILOT01","MH","01-701-1181",19,NA,"VERBATIM_0124","WALKING PNEUMONIA","PNEUMONIA PRIMARY ATYPICAL","HLT_0364","HLGT_0065","HISTORICAL DIAGNOSIS","INFECTIONS AND INFESTATIONS",NA,1,"SCREENING 1",-7,"2013-11-26","1989",-9,NA,NA,NA,"BEFORE",NA,"SCREENING","FIRST DOSE OF STUDY DRUG",NA,NA
"246","CDISCPILOT01","MH","01-701-1181",17,NA,"VERBATIM_0167","TOTAL HYSTERECTOMY","HYSTERECTOMY","HLT_0675","HLGT_0657","HISTORICAL DIAGNOSIS","SURGICAL AND MEDICAL PROCEDURES",NA,1,"SCREENING 1",-7,"2013-11-26","1967",-9,NA,NA,NA,"BEFORE",NA,"SCREENING","FIRST DOSE OF STUDY DRUG",NA,NA
"247","CDISCPILOT01","MH","01-701-1181",20,NA,"VERBATIM_0192","ANKLE INJURY","JOINT INJURY","HLT_0264","HLGT_0127","HISTORICAL DIAGNOSIS","INJURY, POISONING AND PROCEDURAL COMPLICATIONS",NA,1,"SCREENING 1",-7,"2013-11-26","2006",-9,NA,NA,NA,"BEFORE",NA,"SCREENING","FIRST DOSE OF STUDY DRUG",NA,NA
"248","CDISCPILOT01","MH","01-701-1181",18,NA,"VERBATIM_0204","TOOTH EXTRACTION","TOOTH EXTRACTION","HLT_0209","HLGT_0762","HISTORICAL DIAGNOSIS","SURGICAL AND MEDICAL PROCEDURES",NA,1,"SCREENING 1",-7,"2013-11-26","1980",-9,NA,NA,NA,"BEFORE",NA,"SCREENING","FIRST DOSE OF STUDY DRUG",NA,NA
"249","CDISCPILOT01","MH","01-701-1181",24,NA,"VERBATIM_0303","COUGH INCREASED","COUGH","HLT_0701","HLGT_0280","HISTORICAL DIAGNOSIS","RESPIRATORY, THORACIC AND MEDIASTINAL DISORDERS",NA,1,"SCREENING 1",-7,"2013-11-26","2012-06-08",-9,"2012-11-03",NA,NA,"BEFORE","BEFORE","SCREENING","FIRST DOSE OF STUDY DRUG","BEFORE",NA
"250","CDISCPILOT01","MH","01-701-1181",3,"E07","VERBATIM_0462","FINGER AMPUTATION","FINGER AMPUTATION","HLT_0746","HLGT_0244","SIGNIFICANT PRE-EXISTING CONDITION","SURGICAL AND MEDICAL PROCEDURES","MILD",1,"SCREENING 1",-7,"2013-11-26",NA,-9,NA,NA,NA,"BEFORE",NA,"SCREENING","FIRST DOSE OF STUDY DRUG",NA,NA
"251","CDISCPILOT01","MH","01-701-1181",4,"E14","VERBATIM_0507","PRESBYOPIA","PRESBYOPIA","HLT_0230","HLGT_0759","SIGNIFICANT PRE-EXISTING CONDITION","EYE DISORDERS","MILD",1,"SCREENING 1",-7,"2013-11-26",NA,-9,NA,NA,NA,"BEFORE",NA,"SCREENING","FIRST DOSE OF STUDY DRUG",NA,NA
"252","CDISCPILOT01","MH","01-701-1181",5,"E17","VERBATIM_0640","ANKLE EDEMA","OEDEMA PERIPHERAL","HLT_0661","HLGT_0137","SIGNIFICANT PRE-EXISTING CONDITION","GENERAL DISORDERS AND ADMINISTRATION SITE CONDITIONS","MILD",1,"SCREENING 1",-7,"2013-11-26",NA,-9,NA,NA,NA,"BEFORE",NA,"SCREENING","FIRST DOSE OF STUDY DRUG",NA,NA
"253","CDISCPILOT01","MH","01-701-1181",6,"E09","VERBATIM_0671","SHOULDER PAIN","SHOULDER PAIN","HLT_0527","HLGT_0288","SIGNIFICANT PRE-EXISTING CONDITION","MUSCULOSKELETAL AND CONNECTIVE TISSUE DISORDERS","MILD",1,"SCREENING 1",-7,"2013-11-26",NA,-9,NA,NA,NA,"BEFORE",NA,"SCREENING","FIRST DOSE OF STUDY DRUG",NA,NA
"254","CDISCPILOT01","MH","01-701-1181",7,"E15","VERBATIM_0686","DENTURE WEARER","DENTURE WEARER","HLT_0246","HLGT_0763","SIGNIFICANT PRE-EXISTING CONDITION","SOCIAL CIRCUMSTANCES","MILD",1,"SCREENING 1",-7,"2013-11-26",NA,-9,NA,NA,NA,"BEFORE",NA,"SCREENING","FIRST DOSE OF STUDY DRUG",NA,NA
"255","CDISCPILOT01","MH","01-701-1181",8,"E11","VERBATIM_0733","KNEE PAIN","ARTHRALGIA","HLT_0375","HLGT_0610","SIGNIFICANT PRE-EXISTING CONDITION","MUSCULOSKELETAL AND CONNECTIVE TISSUE DISORDERS","MILD",1,"SCREENING 1",-7,"2013-11-26",NA,-9,NA,NA,NA,"BEFORE",NA,"SCREENING","FIRST DOSE OF STUDY DRUG",NA,NA
"256","CDISCPILOT01","MH","01-701-1181",9,"E01","VERBATIM_0929","HEADACHE","HEADACHE","HLT_0064","HLGT_0344","SIGNIFICANT PRE-EXISTING CONDITION","NERVOUS SYSTEM DISORDERS","MILD",1,"SCREENING 1",-7,"2013-11-26",NA,-9,NA,NA,NA,"BEFORE",NA,"SCREENING","FIRST DOSE OF STUDY DRUG",NA,NA
"257","CDISCPILOT01","MH","01-701-1181",10,"E06","VERBATIM_0966","FINGER DEFORMITY","FINGER DEFORMITY","HLT_0600","HLGT_0600","SIGNIFICANT PRE-EXISTING CONDITION","MUSCULOSKELETAL AND CONNECTIVE TISSUE DISORDERS","MILD",1,"SCREENING 1",-7,"2013-11-26",NA,-9,NA,NA,NA,"BEFORE",NA,"SCREENING","FIRST DOSE OF STUDY DRUG",NA,NA
"258","CDISCPILOT01","MH","01-701-1181",11,"E13","VERBATIM_0978","HEARING LOSS BILATERAL","DEAFNESS BILATERAL","HLT_0567","HLGT_0426","SIGNIFICANT PRE-EXISTING CONDITION","EAR AND LABYRINTH DISORDERS","MILD",1,"SCREENING 1",-7,"2013-11-26",NA,-9,NA,NA,NA,"BEFORE",NA,"SCREENING","FIRST DOSE OF STUDY DRUG",NA,NA
"259","CDISCPILOT01","MH","01-701-1181",21,NA,"VERBATIM_1143","HEAD INJURY","HEAD INJURY","HLT_0201","HLGT_0554","HISTORICAL DIAGNOSIS","INJURY, POISONING AND PROCEDURAL COMPLICATIONS",NA,1,"SCREENING 1",-7,"2013-11-26","2006",-9,NA,NA,NA,"BEFORE",NA,"SCREENING","FIRST DOSE OF STUDY DRUG",NA,NA
"260","CDISCPILOT01","MH","01-701-1181",23,NA,"VERBATIM_1176","BRONCHITIS","BRONCHITIS","HLT_0634","HLGT_0523","HISTORICAL DIAGNOSIS","INFECTIONS AND INFESTATIONS",NA,1,"SCREENING 1",-7,"2013-11-26","2009",-9,NA,NA,NA,"BEFORE",NA,"SCREENING","FIRST DOSE OF STUDY DRUG",NA,NA
"261","CDISCPILOT01","MH","01-701-1181",12,"E08","VERBATIM_1215","BONE INJURY","SKELETAL INJURY","HLT_0679","HLGT_0099","SIGNIFICANT PRE-EXISTING CONDITION","INJURY, POISONING AND PROCEDURAL COMPLICATIONS","MILD",1,"SCREENING 1",-7,"2013-11-26",NA,-9,NA,NA,NA,"BEFORE",NA,"SCREENING","FIRST DOSE OF STUDY DRUG",NA,NA
"262","CDISCPILOT01","MH","01-701-1181",13,"E10","VERBATIM_1327","PAIN IN HIP","ARTHRALGIA","HLT_0375","HLGT_0610","SIGNIFICANT PRE-EXISTING CONDITION","MUSCULOSKELETAL AND CONNECTIVE TISSUE DISORDERS","MILD",1,"SCREENING 1",-7,"2013-11-26",NA,-9,NA,NA,NA,"BEFORE",NA,"SCREENING","FIRST DOSE OF STUDY DRUG",NA,NA
"263","CDISCPILOT01","MH","01-701-1181",14,"E02","VERBATIM_1533","DIZZINESS","DIZZINESS","HLT_0619","HLGT_0751","SIGNIFICANT PRE-EXISTING CONDITION","NERVOUS SYSTEM DISORDERS","MILD",1,"SCREENING 1",-7,"2013-11-26",NA,-9,NA,NA,NA,"BEFORE",NA,"SCREENING","FIRST DOSE OF STUDY DRUG",NA,NA
"264","CDISCPILOT01","MH","01-701-1181",15,"E03","VERBATIM_1644","NOCTURNAL CONFUSION","CONFUSIONAL STATE","HLT_0642","HLGT_0329","SIGNIFICANT PRE-EXISTING CONDITION","PSYCHIATRIC DISORDERS","MILD",1,"SCREENING 1",-7,"2013-11-26",NA,-9,NA,NA,NA,"BEFORE",NA,"SCREENING","FIRST DOSE OF STUDY DRUG",NA,NA
"265","CDISCPILOT01","MH","01-701-1181",16,NA,"VERBATIM_1716","TONSILLECTOMY","TONSILLECTOMY","HLT_0202","HLGT_0199","HISTORICAL DIAGNOSIS","SURGICAL AND MEDICAL PROCEDURES",NA,1,"SCREENING 1",-7,"2013-11-26","1940",-9,NA,NA,NA,"BEFORE",NA,"SCREENING","FIRST DOSE OF STUDY DRUG",NA,NA
"266","CDISCPILOT01","MH","01-701-1188",9,NA,"ALZHEIMER'S DISEASE",NA,NA,NA,NA,"PRIMARY DIAGNOSIS",NA,NA,1,"SCREENING 1",-7,"2013-02-03","2005-09-14",-12,"2006-01-24","Y","Y",NA,"BEFORE",NA,"SCREENING","BEFORE",NA
"267","CDISCPILOT01","MH","01-701-1188",8,NA,"VERBATIM_0080","HEADACHE","HEADACHE","HLT_0064","HLGT_0344","HISTORICAL DIAGNOSIS","NERVOUS SYSTEM DISORDERS",NA,1,"SCREENING 1",-7,"2013-02-03","2001",-12,NA,NA,NA,"BEFORE",NA,"SCREENING","FIRST DOSE OF STUDY DRUG",NA,NA
"268","CDISCPILOT01","MH","01-701-1188",1,"E02","VERBATIM_0101","GANGLION","GANGLION","HLT_0674","HLGT_0046","SIGNIFICANT PRE-EXISTING CONDITION","MUSCULOSKELETAL AND CONNECTIVE TISSUE DISORDERS","MILD",1,"SCREENING 1",-7,"2013-02-03",NA,-12,NA,NA,NA,"BEFORE",NA,"SCREENING","FIRST DOSE OF STUDY DRUG",NA,NA
"269","CDISCPILOT01","MH","01-701-1188",6,NA,"VERBATIM_0138","BENIGN PROSTATIC HYPERTROPHY","BENIGN PROSTATIC HYPERPLASIA","HLT_0215","HLGT_0568","HISTORICAL DIAGNOSIS","REPRODUCTIVE SYSTEM AND BREAST DISORDERS",NA,1,"SCREENING 1",-7,"2013-02-03","1996",-12,NA,NA,NA,"BEFORE",NA,"SCREENING","FIRST DOSE OF STUDY DRUG",NA,NA
"270","CDISCPILOT01","MH","01-701-1188",2,"E03","VERBATIM_0507","PRESBYOPIA","PRESBYOPIA","HLT_0230","HLGT_0759","SIGNIFICANT PRE-EXISTING CONDITION","EYE DISORDERS","MILD",1,"SCREENING 1",-7,"2013-02-03",NA,-12,NA,NA,NA,"BEFORE",NA,"SCREENING","FIRST DOSE OF STUDY DRUG",NA,NA
"271","CDISCPILOT01","MH","01-701-1188",10,NA,"VERBATIM_1230","SORE THROAT","PHARYNGOLARYNGEAL PAIN","HLT_0130","HLGT_0402","HISTORICAL DIAGNOSIS","RESPIRATORY, THORACIC AND MEDIASTINAL DISORDERS",NA,1,"SCREENING 1",-7,"2013-02-03","2011-06-08",-12,"2012-03-27",NA,NA,"BEFORE","BEFORE","SCREENING","FIRST DOSE OF STUDY DRUG","BEFORE",NA
"272","CDISCPILOT01","MH","01-701-1188",3,"E01","VERBATIM_1279","DRY SKIN","DRY SKIN","HLT_0028","HLGT_0096","SIGNIFICANT PRE-EXISTING CONDITION","SKIN AND SUBCUTANEOUS TISSUE DISORDERS","MILD",1,"SCREENING 1",-7,"2013-02-03",NA,-12,NA,NA,NA,"BEFORE",NA,"SCREENING","FIRST DOSE OF STUDY DRUG",NA,NA
"273","CDISCPILOT01","MH","01-701-1188",7,NA,"VERBATIM_1363","PROSTATIC OPERATION","PROSTATIC OPERATION","HLT_0385","HLGT_0342","HISTORICAL DIAGNOSIS","SURGICAL AND MEDICAL PROCEDURES",NA,1,"SCREENING 1",-7,"2013-02-03","1996",-12,NA,NA,NA,"BEFORE",NA,"SCREENING","FIRST DOSE OF STUDY DRUG",NA,NA
"274","CDISCPILOT01","MH","01-701-1188",4,NA,"VERBATIM_1729","WISDOM TEETH REMOVAL","WISDOM TEETH REMOVAL","HLT_0442","HLGT_0679","HISTORICAL DIAGNOSIS","SURGICAL AND MEDICAL PROCEDURES",NA,1,"SCREENING 1",-7,"2013-02-03","1964",-12,NA,NA,NA,"BEFORE",NA,"SCREENING","FIRST DOSE OF STUDY DRUG",NA,NA
"275","CDISCPILOT01","MH","01-701-1188",5,NA,"VERBATIM_1733","ALLERGIC URTICARIA","URTICARIA","HLT_0420","HLGT_0705","HISTORICAL DIAGNOSIS","SKIN AND SUBCUTANEOUS TISSUE DISORDERS",NA,1,"SCREENING 1",-7,"2013-02-03","1991",-12,NA,NA,NA,"BEFORE",NA,"SCREENING","FIRST DOSE OF STUDY DRUG",NA,NA
"276","CDISCPILOT01","MH","01-701-1192",15,NA,"ALZHEIMER'S DISEASE",NA,NA,NA,NA,"PRIMARY DIAGNOSIS",NA,NA,1,"SCREENING 1",-7,"2012-07-08","2009-03-15",-14,"2009-10-10","Y","Y",NA,"BEFORE",NA,"SCREENING","BEFORE",NA
"277","CDISCPILOT01","MH","01-701-1192",11,NA,"VERBATIM_0301","HEADACHE","HEADACHE","HLT_0064","HLGT_0344","HISTORICAL DIAGNOSIS","NERVOUS SYSTEM DISORDERS",NA,1,"SCREENING 1",-7,"2012-07-08","1966",-14,NA,NA,NA,"BEFORE",NA,"SCREENING","FIRST DOSE OF STUDY DRUG",NA,NA
"278","CDISCPILOT01","MH","01-701-1192",9,NA,"VERBATIM_0435","ABORTION","ABORTION","HLT_0624","HLGT_0366","HISTORICAL DIAGNOSIS","PREGNANCY, PUERPERIUM AND PERINATAL CONDITIONS",NA,1,"SCREENING 1",-7,"2012-07-08","1946",-14,NA,NA,NA,"BEFORE",NA,"SCREENING","FIRST DOSE OF STUDY DRUG",NA,NA
"279","CDISCPILOT01","MH","01-701-1192",1,"E05","VERBATIM_0507","PRESBYOPIA","PRESBYOPIA","HLT_0230","HLGT_0759","SIGNIFICANT PRE-EXISTING CONDITION","EYE DISORDERS","MILD",1,"SCREENING 1",-7,"2012-07-08",NA,-14,NA,NA,NA,"BEFORE",NA,"SCREENING","FIRST DOSE OF STUDY DRUG",NA,NA
"280","CDISCPILOT01","MH","01-701-1192",18,NA,"VERBATIM_0576","CYST","CYST","HLT_0763","HLGT_0341","HISTORICAL DIAGNOSIS","GENERAL DISORDERS AND ADMINISTRATION SITE CONDITIONS",NA,1,"SCREENING 1",-7,"2012-07-08","2010-04-22",-14,"2010-07-03",NA,NA,"BEFORE","BEFORE","SCREENING","FIRST DOSE OF STUDY DRUG","BEFORE",NA
"281","CDISCPILOT01","MH","01-701-1192",20,NA,"VERBATIM_0579","UPPER RESPIRATORY INFECTION","UPPER RESPIRATORY TRACT INFECTION","HLT_0520","HLGT_0489","HISTORICAL DIAGNOSIS","INFECTIONS AND INFESTATIONS",NA,1,"SCREENING 1",-7,"2012-07-08","2010-09",-14,NA,NA,NA,"BEFORE",NA,"SCREENING","FIRST DOSE OF STUDY DRUG",NA,NA
"282","CDISCPILOT01","MH","01-701-1192",12,NA,"VERBATIM_0721","DUODENAL ULCER","DUODENAL ULCER","HLT_0322","HLGT_0349","HISTORICAL DIAGNOSIS","GASTROINTESTINAL DISORDERS",NA,1,"SCREENING 1",-7,"2012-07-08","1966",-14,NA,NA,NA,"BEFORE",NA,"SCREENING","FIRST DOSE OF STUDY DRUG",NA,NA
"283","CDISCPILOT01","MH","01-701-1192",2,"E15","VERBATIM_0908","INFERIOR MYOCARDIAL INFARCTION","MYOCARDIAL INFARCTION","HLT_0649","HLGT_0688","SIGNIFICANT PRE-EXISTING CONDITION","CARDIAC DISORDERS","MILD",1,"SCREENING 1",-7,"2012-07-08",NA,-14,NA,NA,NA,"BEFORE",NA,"SCREENING","FIRST DOSE OF STUDY DRUG",NA,NA
"284","CDISCPILOT01","MH","01-701-1192",21,NA,"VERBATIM_1176","BRONCHITIS","BRONCHITIS","HLT_0634","HLGT_0523","HISTORICAL DIAGNOSIS","INFECTIONS AND INFESTATIONS",NA,1,"SCREENING 1",-7,"2012-07-08","2010-09",-14,NA,NA,NA,"BEFORE",NA,"SCREENING","FIRST DOSE OF STUDY DRUG",NA,NA
"285","CDISCPILOT01","MH","01-701-1192",3,"E03","VERBATIM_1309","ARTHRITIS","ARTHRITIS","HLT_0019","HLGT_0587","SIGNIFICANT PRE-EXISTING CONDITION","MUSCULOSKELETAL AND CONNECTIVE TISSUE DISORDERS","MILD",1,"SCREENING 1",-7,"2012-07-08",NA,-14,NA,NA,NA,"BEFORE",NA,"SCREENING","FIRST DOSE OF STUDY DRUG",NA,NA
"286","CDISCPILOT01","MH","01-701-1192",19,NA,"VERBATIM_1391","NASAL CYST REMOVAL","NASAL CYST REMOVAL","HLT_0086","HLGT_0082","HISTORICAL DIAGNOSIS","SURGICAL AND MEDICAL PROCEDURES",NA,1,"SCREENING 1",-7,"2012-07-08","2010-04-22",-14,"2010-11-09",NA,NA,"BEFORE","BEFORE","SCREENING","FIRST DOSE OF STUDY DRUG","BEFORE",NA
"287","CDISCPILOT01","MH","01-701-1192",4,"E01","VERBATIM_1421","COUGH","COUGH","HLT_0701","HLGT_0280","SIGNIFICANT PRE-EXISTING CONDITION","RESPIRATORY, THORACIC AND MEDIASTINAL DISORDERS","MILD",1,"SCREENING 1",-7,"2012-07-08",NA,-14,NA,NA,NA,"BEFORE",NA,"SCREENING","FIRST DOSE OF STUDY DRUG",NA,NA
"288","CDISCPILOT01","MH","01-701-1192",5,"E02","VERBATIM_1432","THYROID ENLARGED","GOITRE","HLT_0573","HLGT_0499","SIGNIFICANT PRE-EXISTING CONDITION","ENDOCRINE DISORDERS","MODERATE",1,"SCREENING 1",-7,"2012-07-08",NA,-14,NA,NA,NA,"BEFORE",NA,"SCREENING","FIRST DOSE OF STUDY DRUG",NA,NA
"289","CDISCPILOT01","MH","01-701-1192",13,NA,"VERBATIM_1436","HIP REPLACEMENT","HIP ARTHROPLASTY","HLT_0709","HLGT_0449","HISTORICAL DIAGNOSIS","SURGICAL AND MEDICAL PROCEDURES",NA,1,"SCREENING 1",-7,"2012-07-08","2000",-14,NA,NA,NA,"BEFORE",NA,"SCREENING","FIRST DOSE OF STUDY DRUG",NA,NA
"290","CDISCPILOT01","MH","01-701-1192",14,NA,"VERBATIM_1436","HIP REPLACEMENT","HIP ARTHROPLASTY","HLT_0709","HLGT_0449","HISTORICAL DIAGNOSIS","SURGICAL AND MEDICAL PROCEDURES",NA,1,"SCREENING 1",-7,"2012-07-08","2000",-14,NA,NA,NA,"BEFORE",NA,"SCREENING","FIRST DOSE OF STUDY DRUG",NA,NA
"291","CDISCPILOT01","MH","01-701-1192",10,NA,"VERBATIM_1475","GONORRHEA","GONORRHOEA","HLT_0638","HLGT_0171","HISTORICAL DIAGNOSIS","INFECTIONS AND INFESTATIONS",NA,1,"SCREENING 1",-7,"2012-07-08","1946",-14,NA,NA,NA,"BEFORE",NA,"SCREENING","FIRST DOSE OF STUDY DRUG",NA,NA
"292","CDISCPILOT01","MH","01-701-1192",22,NA,"VERBATIM_1533","DIZZINESS","DIZZINESS","HLT_0619","HLGT_0751","HISTORICAL DIAGNOSIS","NERVOUS SYSTEM DISORDERS",NA,1,"SCREENING 1",-7,"2012-07-08","2011-01",-14,NA,NA,NA,"BEFORE",NA,"SCREENING","FIRST DOSE OF STUDY DRUG",NA,NA
"293","CDISCPILOT01","MH","01-701-1192",16,NA,"VERBATIM_1562","MALAISE","MALAISE","HLT_0456","HLGT_0178","HISTORICAL DIAGNOSIS","GENERAL DISORDERS AND ADMINISTRATION SITE CONDITIONS",NA,1,"SCREENING 1",-7,"2012-07-08","2009-04",-14,NA,NA,NA,"BEFORE",NA,"SCREENING","FIRST DOSE OF STUDY DRUG",NA,NA
"294","CDISCPILOT01","MH","01-701-1192",6,"E07","VERBATIM_1674","DELAYED HEALING OF WOUND","IMPAIRED HEALING","HLT_0424","HLGT_0459","SIGNIFICANT PRE-EXISTING CONDITION","GENERAL DISORDERS AND ADMINISTRATION SITE CONDITIONS","MILD",1,"SCREENING 1",-7,"2012-07-08",NA,-14,NA,NA,NA,"BEFORE",NA,"SCREENING","FIRST DOSE OF STUDY DRUG",NA,NA
"295","CDISCPILOT01","MH","01-701-1192",7,"E04","VERBATIM_1677","HEARING LOSS BILATERAL","DEAFNESS BILATERAL","HLT_0567","HLGT_0426","SIGNIFICANT PRE-EXISTING CONDITION","EAR AND LABYRINTH DISORDERS","MILD",1,"SCREENING 1",-7,"2012-07-08",NA,-14,NA,NA,NA,"BEFORE",NA,"SCREENING","FIRST DOSE OF STUDY DRUG",NA,NA
"296","CDISCPILOT01","MH","01-701-1192",17,NA,"VERBATIM_1703","VERTIGO","VERTIGO","HLT_0255","HLGT_0147","HISTORICAL DIAGNOSIS","EAR AND LABYRINTH DISORDERS",NA,1,"SCREENING 1",-7,"2012-07-08","2009-04",-14,NA,NA,NA,"BEFORE",NA,"SCREENING","FIRST DOSE OF STUDY DRUG",NA,NA
"297","CDISCPILOT01","MH","01-701-1192",8,NA,"VERBATIM_1716","TONSILLECTOMY","TONSILLECTOMY","HLT_0202","HLGT_0199","HISTORICAL DIAGNOSIS","SURGICAL AND MEDICAL PROCEDURES",NA,1,"SCREENING 1",-7,"2012-07-08","1944",-14,NA,NA,NA,"BEFORE",NA,"SCREENING","FIRST DOSE OF STUDY DRUG",NA,NA
"298","CDISCPILOT01","MH","01-701-1203",10,NA,"ALZHEIMER'S DISEASE",NA,NA,NA,NA,"PRIMARY DIAGNOSIS",NA,NA,1,"SCREENING 1",-7,"2013-01-25","2011-04-19",-8,"2011-11-02","Y","Y",NA,"BEFORE",NA,"SCREENING","BEFORE",NA
"299","CDISCPILOT01","MH","01-701-1203",1,"E02","VERBATIM_0287","KNEE PAIN","ARTHRALGIA","HLT_0375","HLGT_0610","SIGNIFICANT PRE-EXISTING CONDITION","MUSCULOSKELETAL AND CONNECTIVE TISSUE DISORDERS","MILD",1,"SCREENING 1",-7,"2013-01-25",NA,-8,NA,NA,NA,"BEFORE",NA,"SCREENING","FIRST DOSE OF STUDY DRUG",NA,NA
"300","CDISCPILOT01","MH","01-701-1203",2,"E03","VERBATIM_0308","GLAUCOMA","GLAUCOMA","HLT_0556","HLGT_0734","SIGNIFICANT PRE-EXISTING CONDITION","EYE DISORDERS","MODERATE",1,"SCREENING 1",-7,"2013-01-25",NA,-8,NA,NA,NA,"BEFORE",NA,"SCREENING","FIRST DOSE OF STUDY DRUG",NA,NA
"301","CDISCPILOT01","MH","01-701-1203",3,"E04","VERBATIM_0507","PRESBYOPIA","PRESBYOPIA","HLT_0230","HLGT_0759","SIGNIFICANT PRE-EXISTING CONDITION","EYE DISORDERS","MODERATE",1,"SCREENING 1",-7,"2013-01-25",NA,-8,NA,NA,NA,"BEFORE",NA,"SCREENING","FIRST DOSE OF STUDY DRUG",NA,NA
"302","CDISCPILOT01","MH","01-701-1203",6,NA,"VERBATIM_0606","MASTECTOMY RADICAL","RADICAL MASTECTOMY","HLT_0697","HLGT_0545","HISTORICAL DIAGNOSIS","SURGICAL AND MEDICAL PROCEDURES",NA,1,"SCREENING 1",-7,"2013-01-25","1972",-8,NA,NA,NA,"BEFORE",NA,"SCREENING","FIRST DOSE OF STUDY DRUG",NA,NA
"303","CDISCPILOT01","MH","01-701-1203",5,NA,"VERBATIM_0682","TOTAL HYSTERECTOMY","HYSTERECTOMY","HLT_0675","HLGT_0657","HISTORICAL DIAGNOSIS","SURGICAL AND MEDICAL PROCEDURES",NA,1,"SCREENING 1",-7,"2013-01-25","1971",-8,NA,NA,NA,"BEFORE",NA,"SCREENING","FIRST DOSE OF STUDY DRUG",NA,NA
"304","CDISCPILOT01","MH","01-701-1203",8,NA,"VERBATIM_1484","HYPERTHYROIDISM","HYPERTHYROIDISM","HLT_0441","HLGT_0736","HISTORICAL DIAGNOSIS","ENDOCRINE DISORDERS",NA,1,"SCREENING 1",-7,"2013-01-25","1991",-8,NA,NA,NA,"BEFORE",NA,"SCREENING","FIRST DOSE OF STUDY DRUG",NA,NA
"305","CDISCPILOT01","MH","01-701-1203",9,NA,"VERBATIM_1487","KNEE TOTAL REPLACEMENT","KNEE ARTHROPLASTY","HLT_0710","HLGT_0078","HISTORICAL DIAGNOSIS","SURGICAL AND MEDICAL PROCEDURES",NA,1,"SCREENING 1",-7,"2013-01-25","2008",-8,NA,NA,NA,"BEFORE",NA,"SCREENING","FIRST DOSE OF STUDY DRUG",NA,NA
"306","CDISCPILOT01","MH","01-701-1203",4,"E01","VERBATIM_1491","POLYARTHRITIS","POLYARTHRITIS","HLT_0134","HLGT_0167","SIGNIFICANT PRE-EXISTING CONDITION","MUSCULOSKELETAL AND CONNECTIVE TISSUE DISORDERS","MODERATE",1,"SCREENING 1",-7,"2013-01-25",NA,-8,NA,NA,NA,"BEFORE",NA,"SCREENING","FIRST DOSE OF STUDY DRUG",NA,NA
"307","CDISCPILOT01","MH","01-701-1203",7,NA,"VERBATIM_1506","BREAST CANCER","BREAST CANCER","HLT_0101","HLGT_0442","HISTORICAL DIAGNOSIS","NEOPLASMS BENIGN, MALIGNANT AND UNSPECIFIED (INCL CYSTS AND POLYPS)",NA,1,"SCREENING 1",-7,"2013-01-25","1972",-8,NA,NA,NA,"BEFORE",NA,"SCREENING","FIRST DOSE OF STUDY DRUG",NA,NA
"308","CDISCPILOT01","MH","01-701-1211",8,NA,"ALZHEIMER'S DISEASE",NA,NA,NA,NA,"PRIMARY DIAGNOSIS",NA,NA,1,"SCREENING 1",-7,"2012-10-30","2010-03-19",-16,"2010-10-24","Y","Y",NA,"BEFORE",NA,"SCREENING","BEFORE",NA
"309","CDISCPILOT01","MH","01-701-1211",1,"E02","VERBATIM_0200","DENTURE WEARER","DENTURE WEARER","HLT_0246","HLGT_0763","SIGNIFICANT PRE-EXISTING CONDITION","SOCIAL CIRCUMSTANCES","MILD",1,"SCREENING 1",-7,"2012-10-30",NA,-16,NA,NA,NA,"BEFORE",NA,"SCREENING","FIRST DOSE OF STUDY DRUG",NA,NA
"310","CDISCPILOT01","MH","01-701-1211",2,"E07","VERBATIM_0713","NOISES IN HEAD","TINNITUS","HLT_0570","HLGT_0180","SIGNIFICANT PRE-EXISTING CONDITION","EAR AND LABYRINTH DISORDERS","MILD",1,"SCREENING 1",-7,"2012-10-30",NA,-16,NA,NA,NA,"BEFORE",NA,"SCREENING","FIRST DOSE OF STUDY DRUG",NA,NA
"311","CDISCPILOT01","MH","01-701-1211",9,NA,"VERBATIM_0859","LEG INJURY","LIMB INJURY","HLT_0476","HLGT_0667","HISTORICAL DIAGNOSIS","INJURY, POISONING AND PROCEDURAL COMPLICATIONS",NA,1,"SCREENING 1",-7,"2012-10-30","2011",-16,NA,NA,NA,"BEFORE",NA,"SCREENING","FIRST DOSE OF STUDY DRUG",NA,NA
"312","CDISCPILOT01","MH","01-701-1211",6,NA,"VERBATIM_0936","HYSTERECTOMY","HYSTERECTOMY","HLT_0675","HLGT_0657","HISTORICAL DIAGNOSIS","SURGICAL AND MEDICAL PROCEDURES",NA,1,"SCREENING 1",-7,"2012-10-30","1971",-16,NA,NA,NA,"BEFORE",NA,"SCREENING","FIRST DOSE OF STUDY DRUG",NA,NA
"313","CDISCPILOT01","MH","01-701-1211",10,NA,"VERBATIM_0948","LEG ULCER (EXCL VARICOSE)","SKIN ULCER","HLT_0005","HLGT_0017","HISTORICAL DIAGNOSIS","SKIN AND SUBCUTANEOUS TISSUE DISORDERS",NA,1,"SCREENING 1",-7,"2012-10-30","2011",-16,NA,NA,NA,"BEFORE",NA,"SCREENING","FIRST DOSE OF STUDY DRUG",NA,NA
"314","CDISCPILOT01","MH","01-701-1211",3,"E10","VERBATIM_1126","DIARRHEA","DIARRHOEA","HLT_0148","HLGT_0588","SIGNIFICANT PRE-EXISTING CONDITION","GASTROINTESTINAL DISORDERS","MILD",1,"SCREENING 1",-7,"2012-10-30",NA,-16,NA,NA,NA,"BEFORE",NA,"SCREENING","FIRST DOSE OF STUDY DRUG",NA,NA
"315","CDISCPILOT01","MH","01-701-1211",7,NA,"VERBATIM_1498","LENS IMPLANT","LENS IMPLANT","HLT_0106","HLGT_0204","HISTORICAL DIAGNOSIS","SURGICAL AND MEDICAL PROCEDURES",NA,1,"SCREENING 1",-7,"2012-10-30","1996",-16,NA,NA,NA,"BEFORE",NA,"SCREENING","FIRST DOSE OF STUDY DRUG",NA,NA
"316","CDISCPILOT01","MH","01-701-1211",4,"E01","VERBATIM_1573","NON-INSULIN-DEPENDENT DIABETES MELLITUS","DIABETES MELLITUS NON-INSULIN-DEPENDENT","HLT_0706","HLGT_0092","SIGNIFICANT PRE-EXISTING CONDITION","METABOLISM AND NUTRITION DISORDERS","MILD",1,"SCREENING 1",-7,"2012-10-30",NA,-16,NA,NA,NA,"BEFORE",NA,"SCREENING","FIRST DOSE OF STUDY DRUG",NA,NA
"317","CDISCPILOT01","MH","01-701-1211",5,NA,"VERBATIM_1716","TONSILLECTOMY","TONSILLECTOMY","HLT_0202","HLGT_0199","HISTORICAL DIAGNOSIS","SURGICAL AND MEDICAL PROCEDURES",NA,1,"SCREENING 1",-7,"2012-10-30","1946",-16,NA,NA,NA,"BEFORE",NA,"SCREENING","FIRST DOSE OF STUDY DRUG",NA,NA
"318","CDISCPILOT01","MH","01-701-1234",12,NA,"ALZHEIMER'S DISEASE",NA,NA,NA,NA,"PRIMARY DIAGNOSIS",NA,NA,1,"SCREENING 1",-7,"2013-03-20","2006-08-11",-10,"2007-07-07","Y","Y",NA,"BEFORE",NA,"SCREENING","BEFORE",NA
"319","CDISCPILOT01","MH","01-701-1234",6,NA,"VERBATIM_0071","SHOULDER OSTEOARTHRITIS","OSTEOARTHRITIS","HLT_0247","HLGT_0462","HISTORICAL DIAGNOSIS","MUSCULOSKELETAL AND CONNECTIVE TISSUE DISORDERS",NA,1,"SCREENING 1",-7,"2013-03-20","2000",-10,NA,NA,NA,"BEFORE",NA,"SCREENING","FIRST DOSE OF STUDY DRUG",NA,NA
"320","CDISCPILOT01","MH","01-701-1234",15,NA,"VERBATIM_0164","HYPERCHOLESTEROLEMIA","HYPERCHOLESTEROLAEMIA","HLT_0025","HLGT_0703","HISTORICAL DIAGNOSIS","METABOLISM AND NUTRITION DISORDERS",NA,1,"SCREENING 1",-7,"2013-03-20","2013-03-20",-10,"2013-05-08",NA,NA,"BEFORE","ONGOING","SCREENING","FIRST DOSE OF STUDY DRUG","DURING",NA
"321","CDISCPILOT01","MH","01-701-1234",8,NA,"VERBATIM_0177","UMBILICAL HERNIA REPAIR","UMBILICAL HERNIA REPAIR","HLT_0278","HLGT_0377","HISTORICAL DIAGNOSIS","SURGICAL AND MEDICAL PROCEDURES",NA,1,"SCREENING 1",-7,"2013-03-20","2001",-10,NA,NA,NA,"BEFORE",NA,"SCREENING","FIRST DOSE OF STUDY DRUG",NA,NA
"322","CDISCPILOT01","MH","01-701-1234",4,NA,"VERBATIM_0357","TENDON REPAIR","TENDON REPAIR","HLT_0434","HLGT_0246","HISTORICAL DIAGNOSIS","SURGICAL AND MEDICAL PROCEDURES",NA,1,"SCREENING 1",-7,"2013-03-20","1994",-10,NA,NA,NA,"BEFORE",NA,"SCREENING","FIRST DOSE OF STUDY DRUG",NA,NA
"323","CDISCPILOT01","MH","01-701-1234",5,NA,"VERBATIM_0500","ACROMIOPLASTY","SHOULDER ARTHROPLASTY","HLT_0406","HLGT_0756","HISTORICAL DIAGNOSIS","SURGICAL AND MEDICAL PROCEDURES",NA,1,"SCREENING 1",-7,"2013-03-20","1999",-10,NA,NA,NA,"BEFORE",NA,"SCREENING","FIRST DOSE OF STUDY DRUG",NA,NA
"324","CDISCPILOT01","MH","01-701-1234",7,NA,"VERBATIM_0500","ACROMIOPLASTY","SHOULDER ARTHROPLASTY","HLT_0406","HLGT_0756","HISTORICAL DIAGNOSIS","SURGICAL AND MEDICAL PROCEDURES",NA,1,"SCREENING 1",-7,"2013-03-20","2000",-10,NA,NA,NA,"BEFORE",NA,"SCREENING","FIRST DOSE OF STUDY DRUG",NA,NA
"325","CDISCPILOT01","MH","01-701-1234",1,"E01","VERBATIM_0507","PRESBYOPIA","PRESBYOPIA","HLT_0230","HLGT_0759","SIGNIFICANT PRE-EXISTING CONDITION","EYE DISORDERS","MILD",1,"SCREENING 1",-7,"2013-03-20",NA,-10,NA,NA,NA,"BEFORE",NA,"SCREENING","FIRST DOSE OF STUDY DRUG",NA,NA
"326","CDISCPILOT01","MH","01-701-1234",9,NA,"VERBATIM_0638","INGUINAL HERNIA REPAIR","INGUINAL HERNIA REPAIR","HLT_0320","HLGT_0772","HISTORICAL DIAGNOSIS","SURGICAL AND MEDICAL PROCEDURES",NA,1,"SCREENING 1",-7,"2013-03-20","2001",-10,NA,NA,NA,"BEFORE",NA,"SCREENING","FIRST DOSE OF STUDY DRUG",NA,NA
"327","CDISCPILOT01","MH","01-701-1234",10,NA,"VERBATIM_0747","CATARACT OPERATION","CATARACT OPERATION","HLT_0432","HLGT_0058","HISTORICAL DIAGNOSIS","SURGICAL AND MEDICAL PROCEDURES",NA,1,"SCREENING 1",-7,"2013-03-20","2002",-10,NA,NA,NA,"BEFORE",NA,"SCREENING","FIRST DOSE OF STUDY DRUG",NA,NA
"328","CDISCPILOT01","MH","01-701-1234",11,NA,"VERBATIM_0881","CATARACT OPERATION","CATARACT OPERATION","HLT_0432","HLGT_0058","HISTORICAL DIAGNOSIS","SURGICAL AND MEDICAL PROCEDURES",NA,1,"SCREENING 1",-7,"2013-03-20","2004",-10,NA,NA,NA,"BEFORE",NA,"SCREENING","FIRST DOSE OF STUDY DRUG",NA,NA
"329","CDISCPILOT01","MH","01-701-1234",13,NA,"VERBATIM_1078","DETACHED RETINA","RETINAL DETACHMENT","HLT_0490","HLGT_0223","HISTORICAL DIAGNOSIS","EYE DISORDERS",NA,1,"SCREENING 1",-7,"2013-03-20","2009",-10,NA,NA,NA,"BEFORE",NA,"SCREENING","FIRST DOSE OF STUDY DRUG",NA,NA
"330","CDISCPILOT01","MH","01-701-1234",14,NA,"VERBATIM_1323","DETACHED RETINA REPAIR","DETACHED RETINA REPAIR","HLT_0345","HLGT_0473","HISTORICAL DIAGNOSIS","SURGICAL AND MEDICAL PROCEDURES",NA,1,"SCREENING 1",-7,"2013-03-20","2009",-10,NA,NA,NA,"BEFORE",NA,"SCREENING","FIRST DOSE OF STUDY DRUG",NA,NA
"331","CDISCPILOT01","MH","01-701-1234",2,NA,"VERBATIM_1716","TONSILLECTOMY","TONSILLECTOMY","HLT_0202","HLGT_0199","HISTORICAL DIAGNOSIS","SURGICAL AND MEDICAL PROCEDURES",NA,1,"SCREENING 1",-7,"2013-03-20","1949",-10,NA,NA,NA,"BEFORE",NA,"SCREENING","FIRST DOSE OF STUDY DRUG",NA,NA
"332","CDISCPILOT01","MH","01-701-1234",3,NA,"VERBATIM_1775","APPENDECTOMY","APPENDICECTOMY","HLT_0707","HLGT_0363","HISTORICAL DIAGNOSIS","SURGICAL AND MEDICAL PROCEDURES",NA,1,"SCREENING 1",-7,"2013-03-20","1949",-10,NA,NA,NA,"BEFORE",NA,"SCREENING","FIRST DOSE OF STUDY DRUG",NA,NA
"333","CDISCPILOT01","MH","01-701-1239",12,NA,"ALZHEIMER'S DISEASE",NA,NA,NA,NA,"PRIMARY DIAGNOSIS",NA,NA,1,"SCREENING 1",-7,"2013-12-28","2003-09-23",-14,"2004-08-12","Y","Y",NA,"BEFORE",NA,"SCREENING","BEFORE",NA
"334","CDISCPILOT01","MH","01-701-1239",13,NA,"VERBATIM_0189","CHEST PAIN","CHEST PAIN","HLT_0717","HLGT_0195","HISTORICAL DIAGNOSIS","GENERAL DISORDERS AND ADMINISTRATION SITE CONDITIONS",NA,1,"SCREENING 1",-7,"2013-12-28","2006",-14,NA,NA,NA,"BEFORE",NA,"SCREENING","FIRST DOSE OF STUDY DRUG",NA,NA
"335","CDISCPILOT01","MH","01-701-1239",10,NA,"VERBATIM_0236","TOOTH EXTRACTION NOS","TOOTH EXTRACTION","HLT_0209","HLGT_0762","HISTORICAL DIAGNOSIS","SURGICAL AND MEDICAL PROCEDURES",NA,1,"SCREENING 1",-7,"2013-12-28","1979",-14,NA,NA,NA,"BEFORE",NA,"SCREENING","FIRST DOSE OF STUDY DRUG",NA,NA
"336","CDISCPILOT01","MH","01-701-1239",14,NA,"VERBATIM_0342","HYPERTENSION","HYPERTENSION","HLT_0228","HLGT_0476","HISTORICAL DIAGNOSIS","VASCULAR DISORDERS",NA,1,"SCREENING 1",-7,"2013-12-28","2006",-14,NA,NA,NA,"BEFORE",NA,"SCREENING","FIRST DOSE OF STUDY DRUG",NA,NA
"337","CDISCPILOT01","MH","01-701-1239",1,"E07","VERBATIM_0391","HEARING LOSS","DEAFNESS","HLT_0234","HLGT_0025","SIGNIFICANT PRE-EXISTING CONDITION","EAR AND LABYRINTH DISORDERS","MILD",1,"SCREENING 1",-7,"2013-12-28",NA,-14,NA,NA,NA,"BEFORE",NA,"SCREENING","FIRST DOSE OF STUDY DRUG",NA,NA
"338","CDISCPILOT01","MH","01-701-1239",2,"E04","VERBATIM_0567","TINGLING FEET/HANDS","PARAESTHESIA","HLT_0481","HLGT_0534","SIGNIFICANT PRE-EXISTING CONDITION","NERVOUS SYSTEM DISORDERS","MILD",1,"SCREENING 1",-7,"2013-12-28",NA,-14,NA,NA,NA,"BEFORE",NA,"SCREENING","FIRST DOSE OF STUDY DRUG",NA,NA
"339","CDISCPILOT01","MH","01-701-1239",3,"E03","VERBATIM_0574","TYPE II DIABETES MELLITUS","DIABETES MELLITUS NON-INSULIN-DEPENDENT","HLT_0706","HLGT_0092","SIGNIFICANT PRE-EXISTING CONDITION","METABOLISM AND NUTRITION DISORDERS","MILD",1,"SCREENING 1",-7,"2013-12-28",NA,-14,NA,NA,NA,"BEFORE",NA,"SCREENING","FIRST DOSE OF STUDY DRUG",NA,NA
"340","CDISCPILOT01","MH","01-701-1239",4,"E02","VERBATIM_0876","DIZZINESS","DIZZINESS","HLT_0619","HLGT_0751","SIGNIFICANT PRE-EXISTING CONDITION","NERVOUS SYSTEM DISORDERS","MILD",1,"SCREENING 1",-7,"2013-12-28",NA,-14,NA,NA,NA,"BEFORE",NA,"SCREENING","FIRST DOSE OF STUDY DRUG",NA,NA
"341","CDISCPILOT01","MH","01-701-1239",15,NA,"VERBATIM_1188","KNEE SURGERY NOS","KNEE OPERATION","HLT_0319","HLGT_0033","HISTORICAL DIAGNOSIS","SURGICAL AND MEDICAL PROCEDURES",NA,1,"SCREENING 1",-7,"2013-12-28","2008",-14,NA,NA,NA,"BEFORE",NA,"SCREENING","FIRST DOSE OF STUDY DRUG",NA,NA
"342","CDISCPILOT01","MH","01-701-1239",5,"E10","VERBATIM_1197","HAIR LOSS","ALOPECIA","HLT_0077","HLGT_0234","SIGNIFICANT PRE-EXISTING CONDITION","SKIN AND SUBCUTANEOUS TISSUE DISORDERS","MILD",1,"SCREENING 1",-7,"2013-12-28",NA,-14,NA,NA,NA,"BEFORE",NA,"SCREENING","FIRST DOSE OF STUDY DRUG",NA,NA
"343","CDISCPILOT01","MH","01-701-1239",6,"E06","VERBATIM_1316","POLYARTHRITIS","POLYARTHRITIS","HLT_0134","HLGT_0167","SIGNIFICANT PRE-EXISTING CONDITION","MUSCULOSKELETAL AND CONNECTIVE TISSUE DISORDERS","MILD",1,"SCREENING 1",-7,"2013-12-28",NA,-14,NA,NA,NA,"BEFORE",NA,"SCREENING","FIRST DOSE OF STUDY DRUG",NA,NA
"344","CDISCPILOT01","MH","01-701-1239",7,"E08","VERBATIM_1411","MYOPIA","MYOPIA","HLT_0282","HLGT_0271","SIGNIFICANT PRE-EXISTING CONDITION","EYE DISORDERS","MILD",1,"SCREENING 1",-7,"2013-12-28",NA,-14,NA,NA,NA,"BEFORE",NA,"SCREENING","FIRST DOSE OF STUDY DRUG",NA,NA
"345","CDISCPILOT01","MH","01-701-1239",8,"E05","VERBATIM_1669","GOUT","GOUT","HLT_0396","HLGT_0479","SIGNIFICANT PRE-EXISTING CONDITION","METABOLISM AND NUTRITION DISORDERS","MILD",1,"SCREENING 1",-7,"2013-12-28",NA,-14,NA,NA,NA,"BEFORE",NA,"SCREENING","FIRST DOSE OF STUDY DRUG",NA,NA
"346","CDISCPILOT01","MH","01-701-1239",9,"E01","VERBATIM_1760","EDEMA","OEDEMA","HLT_0656","HLGT_0036","SIGNIFICANT PRE-EXISTING CONDITION","GENERAL DISORDERS AND ADMINISTRATION SITE CONDITIONS","MILD",1,"SCREENING 1",-7,"2013-12-28",NA,-14,NA,NA,NA,"BEFORE",NA,"SCREENING","FIRST DOSE OF STUDY DRUG",NA,NA
"347","CDISCPILOT01","MH","01-701-1239",11,NA,"VERBATIM_1775","APPENDECTOMY","APPENDICECTOMY","HLT_0707","HLGT_0363","HISTORICAL DIAGNOSIS","SURGICAL AND MEDICAL PROCEDURES",NA,1,"SCREENING 1",-7,"2013-12-28","1980",-14,NA,NA,NA,"BEFORE",NA,"SCREENING","FIRST DOSE OF STUDY DRUG",NA,NA
"348","CDISCPILOT01","MH","01-701-1275",4,NA,"ALZHEIMER'S DISEASE",NA,NA,NA,NA,"PRIMARY DIAGNOSIS",NA,NA,1,"SCREENING 1",-7,"2014-01-25","2011-09-17",-13,"2012-06-03","Y","Y",NA,"BEFORE",NA,"SCREENING","BEFORE",NA
"349","CDISCPILOT01","MH","01-701-1275",1,"E01","VERBATIM_0021","NOCTURIA","NOCTURIA","HLT_0509","HLGT_0605","SIGNIFICANT PRE-EXISTING CONDITION","RENAL AND URINARY DISORDERS","MILD",1,"SCREENING 1",-7,"2014-01-25",NA,-13,NA,NA,NA,"BEFORE",NA,"SCREENING","FIRST DOSE OF STUDY DRUG",NA,NA
"350","CDISCPILOT01","MH","01-701-1275",2,"E02","VERBATIM_0301","HEADACHE","HEADACHE","HLT_0064","HLGT_0344","SIGNIFICANT PRE-EXISTING CONDITION","NERVOUS SYSTEM DISORDERS","MILD",1,"SCREENING 1",-7,"2014-01-25",NA,-13,NA,NA,NA,"BEFORE",NA,"SCREENING","FIRST DOSE OF STUDY DRUG",NA,NA
"351","CDISCPILOT01","MH","01-701-1275",3,"E03","VERBATIM_1683","HYPEROPIA","HYPERMETROPIA","HLT_0546","HLGT_0646","SIGNIFICANT PRE-EXISTING CONDITION","EYE DISORDERS","MILD",1,"SCREENING 1",-7,"2014-01-25",NA,-13,NA,NA,NA,"BEFORE",NA,"SCREENING","FIRST DOSE OF STUDY DRUG",NA,NA
"352","CDISCPILOT01","MH","01-701-1287",4,NA,"ALZHEIMER'S DISEASE",NA,NA,NA,NA,"PRIMARY DIAGNOSIS",NA,NA,1,"SCREENING 1",-7,"2014-01-17","2009-10-30",-8,"2010-04-29","Y","Y",NA,"BEFORE",NA,"SCREENING","BEFORE",NA
"353","CDISCPILOT01","MH","01-701-1287",2,NA,"VERBATIM_0526","TUBERCULOSIS","TUBERCULOSIS","HLT_0344","HLGT_0774","HISTORICAL DIAGNOSIS","INFECTIONS AND INFESTATIONS",NA,1,"SCREENING 1",-7,"2014-01-17","1979",-8,NA,NA,NA,"BEFORE",NA,"SCREENING","FIRST DOSE OF STUDY DRUG",NA,NA
"354","CDISCPILOT01","MH","01-701-1287",5,NA,"VERBATIM_1280","ANXIETY","ANXIETY","HLT_0559","HLGT_0570","HISTORICAL DIAGNOSIS","PSYCHIATRIC DISORDERS",NA,1,"SCREENING 1",-7,"2014-01-17","2010",-8,NA,NA,NA,"BEFORE",NA,"SCREENING","FIRST DOSE OF STUDY DRUG",NA,NA
"355","CDISCPILOT01","MH","01-701-1287",1,"E01","VERBATIM_1532","MYOPIA","MYOPIA","HLT_0282","HLGT_0271","SIGNIFICANT PRE-EXISTING CONDITION","EYE DISORDERS","MILD",1,"SCREENING 1",-7,"2014-01-17",NA,-8,NA,NA,NA,"BEFORE",NA,"SCREENING","FIRST DOSE OF STUDY DRUG",NA,NA
"356","CDISCPILOT01","MH","01-701-1287",3,NA,"VERBATIM_1763","TUBAL LIGATION","TUBAL LIGATION","HLT_0730","HLGT_0608","HISTORICAL DIAGNOSIS","SURGICAL AND MEDICAL PROCEDURES",NA,1,"SCREENING 1",-7,"2014-01-17","1991",-8,NA,NA,NA,"BEFORE",NA,"SCREENING","FIRST DOSE OF STUDY DRUG",NA,NA
"357","CDISCPILOT01","MH","01-701-1294",10,NA,"ALZHEIMER'S DISEASE",NA,NA,NA,NA,"PRIMARY DIAGNOSIS",NA,NA,1,"SCREENING 1",-7,"2013-03-17","2011-09-09",-7,"2012-06-14","Y","Y",NA,"BEFORE",NA,"SCREENING","BEFORE",NA
"358","CDISCPILOT01","MH","01-701-1294",1,"E01","VERBATIM_0162","GENITAL HERPES","HERPES SIMPLEX","HLT_0715","HLGT_0438","SIGNIFICANT PRE-EXISTING CONDITION","INFECTIONS AND INFESTATIONS","MILD",1,"SCREENING 1",-7,"2013-03-17",NA,-7,NA,NA,NA,"BEFORE",NA,"SCREENING","FIRST DOSE OF STUDY DRUG",NA,NA
"359","CDISCPILOT01","MH","01-701-1294",2,"E05","VERBATIM_0464","VISION DECREASED","VISUAL ACUITY REDUCED","HLT_0421","HLGT_0524","SIGNIFICANT PRE-EXISTING CONDITION","EYE DISORDERS","MILD",1,"SCREENING 1",-7,"2013-03-17",NA,-7,NA,NA,NA,"BEFORE",NA,"SCREENING","FIRST DOSE OF STUDY DRUG",NA,NA
"360","CDISCPILOT01","MH","01-701-1294",8,NA,"VERBATIM_0721","DUODENAL ULCER","DUODENAL ULCER","HLT_0322","HLGT_0349","HISTORICAL DIAGNOSIS","GASTROINTESTINAL DISORDERS",NA,1,"SCREENING 1",-7,"2013-03-17","1976",-7,NA,NA,NA,"BEFORE",NA,"SCREENING","FIRST DOSE OF STUDY DRUG",NA,NA
"361","CDISCPILOT01","MH","01-701-1294",9,NA,"VERBATIM_0739","KIDNEY STONES","NEPHROLITHIASIS","HLT_0439","HLGT_0546","HISTORICAL DIAGNOSIS","RENAL AND URINARY DISORDERS",NA,1,"SCREENING 1",-7,"2013-03-17","1976",-7,NA,NA,NA,"BEFORE",NA,"SCREENING","FIRST DOSE OF STUDY DRUG",NA,NA
"362","CDISCPILOT01","MH","01-701-1294",3,"E03","VERBATIM_1063","ARTHRITIS OF NECK","SPONDYLITIS","HLT_0418","HLGT_0708","SIGNIFICANT PRE-EXISTING CONDITION","MUSCULOSKELETAL AND CONNECTIVE TISSUE DISORDERS","MILD",1,"SCREENING 1",-7,"2013-03-17",NA,-7,NA,NA,NA,"BEFORE",NA,"SCREENING","FIRST DOSE OF STUDY DRUG",NA,NA
"363","CDISCPILOT01","MH","01-701-1294",7,NA,"VERBATIM_1187","HEMORRHOIDECTOMY","HAEMORRHOID OPERATION","HLT_0300","HLGT_0468","HISTORICAL DIAGNOSIS","SURGICAL AND MEDICAL PROCEDURES",NA,1,"SCREENING 1",-7,"2013-03-17","1966",-7,NA,NA,NA,"BEFORE",NA,"SCREENING","FIRST DOSE OF STUDY DRUG",NA,NA
"364","CDISCPILOT01","MH","01-701-1294",11,NA,"VERBATIM_1380","ARTHROSCOPY R KNEE","ARTHROSCOPY","HLT_0048","HLGT_0296","HISTORICAL DIAGNOSIS","INVESTIGATIONS",NA,1,"SCREENING 1",-7,"2013-03-17","2012-12",-7,NA,NA,NA,"BEFORE",NA,"SCREENING","FIRST DOSE OF STUDY DRUG",NA,NA
"365","CDISCPILOT01","MH","01-701-1294",4,"E02","VERBATIM_1491","POLYARTHRITIS","POLYARTHRITIS","HLT_0134","HLGT_0167","SIGNIFICANT PRE-EXISTING CONDITION","MUSCULOSKELETAL AND CONNECTIVE TISSUE DISORDERS","MILD",1,"SCREENING 1",-7,"2013-03-17",NA,-7,NA,NA,NA,"BEFORE",NA,"SCREENING","FIRST DOSE OF STUDY DRUG",NA,NA
"366","CDISCPILOT01","MH","01-701-1294",6,NA,"VERBATIM_1716","TONSILLECTOMY","TONSILLECTOMY","HLT_0202","HLGT_0199","HISTORICAL DIAGNOSIS","SURGICAL AND MEDICAL PROCEDURES",NA,1,"SCREENING 1",-7,"2013-03-17","1946",-7,NA,NA,NA,"BEFORE",NA,"SCREENING","FIRST DOSE OF STUDY DRUG",NA,NA
"367","CDISCPILOT01","MH","01-701-1294",5,"E04","VERBATIM_1769","SINUSITIS","SINUSITIS","HLT_0262","HLGT_0249","SIGNIFICANT PRE-EXISTING CONDITION","INFECTIONS AND INFESTATIONS","MILD",1,"SCREENING 1",-7,"2013-03-17",NA,-7,NA,NA,NA,"BEFORE",NA,"SCREENING","FIRST DOSE OF STUDY DRUG",NA,NA
"368","CDISCPILOT01","MH","01-701-1302",20,NA,"ALZHEIMER'S DISEASE",NA,NA,NA,NA,"PRIMARY DIAGNOSIS",NA,NA,1,"SCREENING 1",-7,"2013-08-20","2007-02-09",-9,"2007-05-06","Y","Y",NA,"BEFORE",NA,"SCREENING","BEFORE",NA
"369","CDISCPILOT01","MH","01-701-1302",1,"E05","VERBATIM_0045","WHIPLASH INJURY","WHIPLASH INJURY","HLT_0632","HLGT_0653","SIGNIFICANT PRE-EXISTING CONDITION","INJURY, POISONING AND PROCEDURAL COMPLICATIONS","MILD",1,"SCREENING 1",-7,"2013-08-20",NA,-9,NA,NA,NA,"BEFORE",NA,"SCREENING","FIRST DOSE OF STUDY DRUG",NA,NA
"370","CDISCPILOT01","MH","01-701-1302",21,NA,"VERBATIM_0123","BLEEDING RECTAL","RECTAL HAEMORRHAGE","HLT_0353","HLGT_0755","HISTORICAL DIAGNOSIS","GASTROINTESTINAL DISORDERS",NA,1,"SCREENING 1",-7,"2013-08-20","2012-03-15",-9,"2012-11-25",NA,NA,"BEFORE","BEFORE","SCREENING","FIRST DOSE OF STUDY DRUG","BEFORE",NA
"371","CDISCPILOT01","MH","01-701-1302",2,"E01","VERBATIM_0148","OPHTHALMIC MIGRAINE","MIGRAINE WITH AURA","HLT_0029","HLGT_0710","SIGNIFICANT PRE-EXISTING CONDITION","NERVOUS SYSTEM DISORDERS","MILD",1,"SCREENING 1",-7,"2013-08-20",NA,-9,NA,NA,NA,"BEFORE",NA,"SCREENING","FIRST DOSE OF STUDY DRUG",NA,NA
"372","CDISCPILOT01","MH","01-701-1302",3,"E08","VERBATIM_0391","HEARING LOSS","DEAFNESS","HLT_0234","HLGT_0025","SIGNIFICANT PRE-EXISTING CONDITION","EAR AND LABYRINTH DISORDERS","MILD",1,"SCREENING 1",-7,"2013-08-20",NA,-9,NA,NA,NA,"BEFORE",NA,"SCREENING","FIRST DOSE OF STUDY DRUG",NA,NA
"373","CDISCPILOT01","MH","01-701-1302",4,"E11","VERBATIM_0443","CONSTIPATION","CONSTIPATION","HLT_0402","HLGT_0635","SIGNIFICANT PRE-EXISTING CONDITION","GASTROINTESTINAL DISORDERS","MILD",1,"SCREENING 1",-7,"2013-08-20",NA,-9,NA,NA,NA,"BEFORE",NA,"SCREENING","FIRST DOSE OF STUDY DRUG",NA,NA
"374","CDISCPILOT01","MH","01-701-1302",23,NA,"VERBATIM_0558","MUSCLE PAIN","MYALGIA","HLT_0700","HLGT_0121","HISTORICAL DIAGNOSIS","MUSCULOSKELETAL AND CONNECTIVE TISSUE DISORDERS",NA,1,"SCREENING 1",-7,"2013-08-20","2012-04-04",-9,"2012-07-04",NA,NA,"BEFORE","BEFORE","SCREENING","FIRST DOSE OF STUDY DRUG","BEFORE",NA
"375","CDISCPILOT01","MH","01-701-1302",24,NA,"VERBATIM_0579","UPPER RESPIRATORY INFECTION","UPPER RESPIRATORY TRACT INFECTION","HLT_0520","HLGT_0489","HISTORICAL DIAGNOSIS","INFECTIONS AND INFESTATIONS",NA,1,"SCREENING 1",-7,"2013-08-20","2012-04-04",-9,"2012-09-15",NA,NA,"BEFORE","BEFORE","SCREENING","FIRST DOSE OF STUDY DRUG","BEFORE",NA
"376","CDISCPILOT01","MH","01-701-1302",5,"E04","VERBATIM_0894","HERPES LESION INTRA-ORAL","HERPES SIMPLEX","HLT_0715","HLGT_0438","SIGNIFICANT PRE-EXISTING CONDITION","INFECTIONS AND INFESTATIONS","MILD",1,"SCREENING 1",-7,"2013-08-20",NA,-9,NA,NA,NA,"BEFORE",NA,"SCREENING","FIRST DOSE OF STUDY DRUG",NA,NA
"377","CDISCPILOT01","MH","01-701-1302",14,NA,"VERBATIM_0919","PNEUMONIA","PNEUMONIA","HLT_0251","HLGT_0671","HISTORICAL DIAGNOSIS","INFECTIONS AND INFESTATIONS",NA,1,"SCREENING 1",-7,"2013-08-20","1966",-9,NA,NA,NA,"BEFORE",NA,"SCREENING","FIRST DOSE OF STUDY DRUG",NA,NA
"378","CDISCPILOT01","MH","01-701-1302",6,"E02","VERBATIM_0929","HEADACHE","HEADACHE","HLT_0064","HLGT_0344","SIGNIFICANT PRE-EXISTING CONDITION","NERVOUS SYSTEM DISORDERS","MILD",1,"SCREENING 1",-7,"2013-08-20",NA,-9,NA,NA,NA,"BEFORE",NA,"SCREENING","FIRST DOSE OF STUDY DRUG",NA,NA
"379","CDISCPILOT01","MH","01-701-1302",7,"E10","VERBATIM_1022","DENTURE WEARER","DENTURE WEARER","HLT_0246","HLGT_0763","SIGNIFICANT PRE-EXISTING CONDITION","SOCIAL CIRCUMSTANCES","MILD",1,"SCREENING 1",-7,"2013-08-20",NA,-9,NA,NA,NA,"BEFORE",NA,"SCREENING","FIRST DOSE OF STUDY DRUG",NA,NA
"380","CDISCPILOT01","MH","01-701-1302",8,"E03","VERBATIM_1094","DILATED VEINS","VASODILATATION","HLT_0453","HLGT_0394","SIGNIFICANT PRE-EXISTING CONDITION","VASCULAR DISORDERS","MILD",1,"SCREENING 1",-7,"2013-08-20",NA,-9,NA,NA,NA,"BEFORE",NA,"SCREENING","FIRST DOSE OF STUDY DRUG",NA,NA
"381","CDISCPILOT01","MH","01-701-1302",18,NA,"VERBATIM_1233","INGUINAL HERNIA REPAIR","INGUINAL HERNIA REPAIR","HLT_0320","HLGT_0772","HISTORICAL DIAGNOSIS","SURGICAL AND MEDICAL PROCEDURES",NA,1,"SCREENING 1",-7,"2013-08-20","1995",-9,NA,NA,NA,"BEFORE",NA,"SCREENING","FIRST DOSE OF STUDY DRUG",NA,NA
"382","CDISCPILOT01","MH","01-701-1302",9,"E12","VERBATIM_1348","ENLARGED PROSTATE","BENIGN PROSTATIC HYPERPLASIA","HLT_0215","HLGT_0568","SIGNIFICANT PRE-EXISTING CONDITION","REPRODUCTIVE SYSTEM AND BREAST DISORDERS","MILD",1,"SCREENING 1",-7,"2013-08-20",NA,-9,NA,NA,NA,"BEFORE",NA,"SCREENING","FIRST DOSE OF STUDY DRUG",NA,NA
"383","CDISCPILOT01","MH","01-701-1302",25,NA,"VERBATIM_1438","HERNIA REPAIR","HERNIA REPAIR","HLT_0766","HLGT_0696","HISTORICAL DIAGNOSIS","SURGICAL AND MEDICAL PROCEDURES",NA,1,"SCREENING 1",-7,"2013-08-20","2012-08",-9,NA,NA,NA,"BEFORE",NA,"SCREENING","FIRST DOSE OF STUDY DRUG",NA,NA
"384","CDISCPILOT01","MH","01-701-1302",15,NA,"VERBATIM_1463","ANKLE FRACTURE","ANKLE FRACTURE","HLT_0208","HLGT_0252","HISTORICAL DIAGNOSIS","INJURY, POISONING AND PROCEDURAL COMPLICATIONS",NA,1,"SCREENING 1",-7,"2013-08-20","1967",-9,NA,NA,NA,"BEFORE",NA,"SCREENING","FIRST DOSE OF STUDY DRUG",NA,NA
"385","CDISCPILOT01","MH","01-701-1302",16,NA,"VERBATIM_1475","GONORRHEA","GONORRHOEA","HLT_0638","HLGT_0171","HISTORICAL DIAGNOSIS","INFECTIONS AND INFESTATIONS",NA,1,"SCREENING 1",-7,"2013-08-20","1973",-9,NA,NA,NA,"BEFORE",NA,"SCREENING","FIRST DOSE OF STUDY DRUG",NA,NA
"386","CDISCPILOT01","MH","01-701-1302",10,"E07","VERBATIM_1532","MYOPIA","MYOPIA","HLT_0282","HLGT_0271","SIGNIFICANT PRE-EXISTING CONDITION","EYE DISORDERS","MILD",1,"SCREENING 1",-7,"2013-08-20",NA,-9,NA,NA,NA,"BEFORE",NA,"SCREENING","FIRST DOSE OF STUDY DRUG",NA,NA
"387","CDISCPILOT01","MH","01-701-1302",11,"E09","VERBATIM_1631","DENTURE WEARER","DENTURE WEARER","HLT_0246","HLGT_0763","SIGNIFICANT PRE-EXISTING CONDITION","SOCIAL CIRCUMSTANCES","MILD",1,"SCREENING 1",-7,"2013-08-20",NA,-9,NA,NA,NA,"BEFORE",NA,"SCREENING","FIRST DOSE OF STUDY DRUG",NA,NA
"388","CDISCPILOT01","MH","01-701-1302",13,NA,"VERBATIM_1716","TONSILLECTOMY","TONSILLECTOMY","HLT_0202","HLGT_0199","HISTORICAL DIAGNOSIS","SURGICAL AND MEDICAL PROCEDURES",NA,1,"SCREENING 1",-7,"2013-08-20","1956",-9,NA,NA,NA,"BEFORE",NA,"SCREENING","FIRST DOSE OF STUDY DRUG",NA,NA
"389","CDISCPILOT01","MH","01-701-1302",19,NA,"VERBATIM_1738","TOOTH EXTRACTION","TOOTH EXTRACTION","HLT_0209","HLGT_0762","HISTORICAL DIAGNOSIS","SURGICAL AND MEDICAL PROCEDURES",NA,1,"SCREENING 1",-7,"2013-08-20","1997",-9,NA,NA,NA,"BEFORE",NA,"SCREENING","FIRST DOSE OF STUDY DRUG",NA,NA
"390","CDISCPILOT01","MH","01-701-1302",22,NA,"VERBATIM_1747","PAINFUL DEFECATION","PAINFUL DEFAECATION","HLT_0379","HLGT_0315","HISTORICAL DIAGNOSIS","GASTROINTESTINAL DISORDERS",NA,1,"SCREENING 1",-7,"2013-08-20","2012-03-15",-9,"2012-05-25",NA,NA,"BEFORE","BEFORE","SCREENING","FIRST DOSE OF STUDY DRUG","BEFORE",NA
"391","CDISCPILOT01","MH","01-701-1302",17,NA,"VERBATIM_1768","INTERNAL HEMORRHOIDS","HAEMORRHOIDS","HLT_0681","HLGT_0485","HISTORICAL DIAGNOSIS","GASTROINTESTINAL DISORDERS",NA,1,"SCREENING 1",-7,"2013-08-20","1993",-9,NA,NA,NA,"BEFORE",NA,"SCREENING","FIRST DOSE OF STUDY DRUG",NA,NA
"392","CDISCPILOT01","MH","01-701-1302",12,"E06","VERBATIM_1781","LOW BACK PAIN","BACK PAIN","HLT_0115","HLGT_0508","SIGNIFICANT PRE-EXISTING CONDITION","MUSCULOSKELETAL AND CONNECTIVE TISSUE DISORDERS","MILD",1,"SCREENING 1",-7,"2013-08-20",NA,-9,NA,NA,NA,"BEFORE",NA,"SCREENING","FIRST DOSE OF STUDY DRUG",NA,NA
"393","CDISCPILOT01","MH","01-701-1317",12,NA,"ALZHEIMER'S DISEASE",NA,NA,NA,NA,"PRIMARY DIAGNOSIS",NA,NA,1,"SCREENING 1",-7,"2014-05-10","2013-09-16",-12,"2014-04-23","Y","Y",NA,"BEFORE",NA,"SCREENING","BEFORE",NA
"394","CDISCPILOT01","MH","01-701-1317",1,"E03","VERBATIM_0014","NOCTURIA","NOCTURIA","HLT_0509","HLGT_0605","SIGNIFICANT PRE-EXISTING CONDITION","RENAL AND URINARY DISORDERS","MILD",1,"SCREENING 1",-7,"2014-05-10",NA,-12,NA,NA,NA,"BEFORE",NA,"SCREENING","FIRST DOSE OF STUDY DRUG",NA,NA
"395","CDISCPILOT01","MH","01-701-1317",2,"E05","VERBATIM_0162","GENITAL HERPES","HERPES SIMPLEX","HLT_0715","HLGT_0438","SIGNIFICANT PRE-EXISTING CONDITION","INFECTIONS AND INFESTATIONS","MILD",1,"SCREENING 1",-7,"2014-05-10",NA,-12,NA,NA,NA,"BEFORE",NA,"SCREENING","FIRST DOSE OF STUDY DRUG",NA,NA
"396","CDISCPILOT01","MH","01-701-1317",3,"E01","VERBATIM_0267","HEMORRHOIDS","HAEMORRHOIDS","HLT_0681","HLGT_0485","SIGNIFICANT PRE-EXISTING CONDITION","GASTROINTESTINAL DISORDERS","MILD",1,"SCREENING 1",-7,"2014-05-10",NA,-12,NA,NA,NA,"BEFORE",NA,"SCREENING","FIRST DOSE OF STUDY DRUG",NA,NA
"397","CDISCPILOT01","MH","01-701-1317",4,"E04","VERBATIM_0301","HEADACHE","HEADACHE","HLT_0064","HLGT_0344","SIGNIFICANT PRE-EXISTING CONDITION","NERVOUS SYSTEM DISORDERS","MILD",1,"SCREENING 1",-7,"2014-05-10",NA,-12,NA,NA,NA,"BEFORE",NA,"SCREENING","FIRST DOSE OF STUDY DRUG",NA,NA
"398","CDISCPILOT01","MH","01-701-1317",5,"E08","VERBATIM_0391","HEARING LOSS","DEAFNESS","HLT_0234","HLGT_0025","SIGNIFICANT PRE-EXISTING CONDITION","EAR AND LABYRINTH DISORDERS","MILD",1,"SCREENING 1",-7,"2014-05-10",NA,-12,NA,NA,NA,"BEFORE",NA,"SCREENING","FIRST DOSE OF STUDY DRUG",NA,NA
"399","CDISCPILOT01","MH","01-701-1317",6,"E02","VERBATIM_0841","HEARTBURN","DYSPEPSIA","HLT_0244","HLGT_0716","SIGNIFICANT PRE-EXISTING CONDITION","GASTROINTESTINAL DISORDERS","MILD",1,"SCREENING 1",-7,"2014-05-10",NA,-12,NA,NA,NA,"BEFORE",NA,"SCREENING","FIRST DOSE OF STUDY DRUG",NA,NA
"400","CDISCPILOT01","MH","01-701-1317",7,"E09","VERBATIM_1190","NEARSIGHTED","MYOPIA","HLT_0282","HLGT_0271","SIGNIFICANT PRE-EXISTING CONDITION","EYE DISORDERS","MILD",1,"SCREENING 1",-7,"2014-05-10",NA,-12,NA,NA,NA,"BEFORE",NA,"SCREENING","FIRST DOSE OF STUDY DRUG",NA,NA
"401","CDISCPILOT01","MH","01-701-1317",8,"E06","VERBATIM_1257","SKIN NODULE","SKIN NODULE","HLT_0540","HLGT_0334","SIGNIFICANT PRE-EXISTING CONDITION","SKIN AND SUBCUTANEOUS TISSUE DISORDERS","MILD",1,"SCREENING 1",-7,"2014-05-10",NA,-12,NA,NA,NA,"BEFORE",NA,"SCREENING","FIRST DOSE OF STUDY DRUG",NA,NA
"402","CDISCPILOT01","MH","01-701-1317",9,"E10","VERBATIM_1580","TOOTHACHE","TOOTHACHE","HLT_0470","HLGT_0525","SIGNIFICANT PRE-EXISTING CONDITION","GASTROINTESTINAL DISORDERS","MILD",1,"SCREENING 1",-7,"2014-05-10",NA,-12,NA,NA,NA,"BEFORE",NA,"SCREENING","FIRST DOSE OF STUDY DRUG",NA,NA
"403","CDISCPILOT01","MH","01-701-1317",10,"E07","VERBATIM_1662","RHEUMATOID ARTHRITIS","RHEUMATOID ARTHRITIS","HLT_0390","HLGT_0743","SIGNIFICANT PRE-EXISTING CONDITION","MUSCULOSKELETAL AND CONNECTIVE TISSUE DISORDERS","MILD",1,"SCREENING 1",-7,"2014-05-10",NA,-12,NA,NA,NA,"BEFORE",NA,"SCREENING","FIRST DOSE OF STUDY DRUG",NA,NA
"404","CDISCPILOT01","MH","01-701-1317",11,NA,"VERBATIM_1716","TONSILLECTOMY","TONSILLECTOMY","HLT_0202","HLGT_0199","HISTORICAL DIAGNOSIS","SURGICAL AND MEDICAL PROCEDURES",NA,1,"SCREENING 1",-7,"2014-05-10","1951",-12,NA,NA,NA,"BEFORE",NA,"SCREENING","FIRST DOSE OF STUDY DRUG",NA,NA
"405","CDISCPILOT01","MH","01-701-1324",10,NA,"ALZHEIMER'S DISEASE",NA,NA,NA,NA,"PRIMARY DIAGNOSIS",NA,NA,1,"SCREENING 1",-7,"2012-09-16","2009-10-11",-16,"2009-12-12","Y","Y",NA,"BEFORE",NA,"SCREENING","BEFORE",NA
"406","CDISCPILOT01","MH","01-701-1324",5,NA,"VERBATIM_0206","LEFT INGUINAL HERNIA","INGUINAL HERNIA","HLT_0388","HLGT_0368","HISTORICAL DIAGNOSIS","GASTROINTESTINAL DISORDERS",NA,1,"SCREENING 1",-7,"2012-09-16","2001",-16,NA,NA,NA,"BEFORE",NA,"SCREENING","FIRST DOSE OF STUDY DRUG",NA,NA
"407","CDISCPILOT01","MH","01-701-1324",6,NA,"VERBATIM_0722","HERNIA REPAIR","HERNIA REPAIR","HLT_0766","HLGT_0696","HISTORICAL DIAGNOSIS","SURGICAL AND MEDICAL PROCEDURES",NA,1,"SCREENING 1",-7,"2012-09-16","2001",-16,NA,NA,NA,"BEFORE",NA,"SCREENING","FIRST DOSE OF STUDY DRUG",NA,NA
"408","CDISCPILOT01","MH","01-701-1324",7,NA,"VERBATIM_0809","OSTEOARTHRITIS","OSTEOARTHRITIS","HLT_0247","HLGT_0462","HISTORICAL DIAGNOSIS","MUSCULOSKELETAL AND CONNECTIVE TISSUE DISORDERS",NA,1,"SCREENING 1",-7,"2012-09-16","2005",-16,NA,NA,NA,"BEFORE",NA,"SCREENING","FIRST DOSE OF STUDY DRUG",NA,NA
"409","CDISCPILOT01","MH","01-701-1324",1,"E03","VERBATIM_0884","CATARACTS","CATARACT","HLT_0090","HLGT_0498","SIGNIFICANT PRE-EXISTING CONDITION","EYE DISORDERS","MILD",1,"SCREENING 1",-7,"2012-09-16",NA,-16,NA,NA,NA,"BEFORE",NA,"SCREENING","FIRST DOSE OF STUDY DRUG",NA,NA
"410","CDISCPILOT01","MH","01-701-1324",2,"E01","VERBATIM_1065","TINNITUS","TINNITUS","HLT_0570","HLGT_0180","SIGNIFICANT PRE-EXISTING CONDITION","EAR AND LABYRINTH DISORDERS","MILD",1,"SCREENING 1",-7,"2012-09-16",NA,-16,NA,NA,NA,"BEFORE",NA,"SCREENING","FIRST DOSE OF STUDY DRUG",NA,NA
"411","CDISCPILOT01","MH","01-701-1324",8,NA,"VERBATIM_1583","BACK PAIN","BACK PAIN","HLT_0115","HLGT_0508","HISTORICAL DIAGNOSIS","MUSCULOSKELETAL AND CONNECTIVE TISSUE DISORDERS",NA,1,"SCREENING 1",-7,"2012-09-16","2005",-16,NA,NA,NA,"BEFORE",NA,"SCREENING","FIRST DOSE OF STUDY DRUG",NA,NA
"412","CDISCPILOT01","MH","01-701-1324",9,NA,"VERBATIM_1640","HIP REPLACEMENT","HIP ARTHROPLASTY","HLT_0709","HLGT_0449","HISTORICAL DIAGNOSIS","SURGICAL AND MEDICAL PROCEDURES",NA,1,"SCREENING 1",-7,"2012-09-16","2005",-16,NA,NA,NA,"BEFORE",NA,"SCREENING","FIRST DOSE OF STUDY DRUG",NA,NA
"413","CDISCPILOT01","MH","01-701-1324",3,"E02","VERBATIM_1683","HYPEROPIA","HYPERMETROPIA","HLT_0546","HLGT_0646","SIGNIFICANT PRE-EXISTING CONDITION","EYE DISORDERS","MODERATE",1,"SCREENING 1",-7,"2012-09-16",NA,-16,NA,NA,NA,"BEFORE",NA,"SCREENING","FIRST DOSE OF STUDY DRUG",NA,NA
"414","CDISCPILOT01","MH","01-701-1324",4,NA,"VERBATIM_1716","TONSILLECTOMY","TONSILLECTOMY","HLT_0202","HLGT_0199","HISTORICAL DIAGNOSIS","SURGICAL AND MEDICAL PROCEDURES",NA,1,"SCREENING 1",-7,"2012-09-16","1944",-16,NA,NA,NA,"BEFORE",NA,"SCREENING","FIRST DOSE OF STUDY DRUG",NA,NA
"415","CDISCPILOT01","MH","01-701-1341",14,NA,"ALZHEIMER'S DISEASE",NA,NA,NA,NA,"PRIMARY DIAGNOSIS",NA,NA,1,"SCREENING 1",-7,"2012-12-22","2006-06-05",-14,"2007-01-29","Y","Y",NA,"BEFORE",NA,"SCREENING","BEFORE",NA
"416","CDISCPILOT01","MH","01-701-1341",1,"E05","VERBATIM_0119","POLYARTHRITIS","POLYARTHRITIS","HLT_0134","HLGT_0167","SIGNIFICANT PRE-EXISTING CONDITION","MUSCULOSKELETAL AND CONNECTIVE TISSUE DISORDERS","MILD",1,"SCREENING 1",-7,"2012-12-22",NA,-14,NA,NA,NA,"BEFORE",NA,"SCREENING","FIRST DOSE OF STUDY DRUG",NA,NA
"417","CDISCPILOT01","MH","01-701-1341",2,"E02","VERBATIM_0182","EDEMA HANDS","OEDEMA PERIPHERAL","HLT_0661","HLGT_0137","SIGNIFICANT PRE-EXISTING CONDITION","GENERAL DISORDERS AND ADMINISTRATION SITE CONDITIONS","MILD",1,"SCREENING 1",-7,"2012-12-22",NA,-14,NA,NA,NA,"BEFORE",NA,"SCREENING","FIRST DOSE OF STUDY DRUG",NA,NA
"418","CDISCPILOT01","MH","01-701-1341",3,"E01","VERBATIM_0342","HYPERTENSION","HYPERTENSION","HLT_0228","HLGT_0476","SIGNIFICANT PRE-EXISTING CONDITION","VASCULAR DISORDERS","MILD",1,"SCREENING 1",-7,"2012-12-22",NA,-14,NA,NA,NA,"BEFORE",NA,"SCREENING","FIRST DOSE OF STUDY DRUG",NA,NA
"419","CDISCPILOT01","MH","01-701-1341",10,NA,"VERBATIM_0433","RHEUMATIC FEVER","RHEUMATIC FEVER","HLT_0366","HLGT_0428","HISTORICAL DIAGNOSIS","MUSCULOSKELETAL AND CONNECTIVE TISSUE DISORDERS",NA,1,"SCREENING 1",-7,"2012-12-22","1966",-14,NA,NA,NA,"BEFORE",NA,"SCREENING","FIRST DOSE OF STUDY DRUG",NA,NA
"420","CDISCPILOT01","MH","01-701-1341",4,"E08","VERBATIM_0676","ARTHRITIS","ARTHRITIS","HLT_0019","HLGT_0587","SIGNIFICANT PRE-EXISTING CONDITION","MUSCULOSKELETAL AND CONNECTIVE TISSUE DISORDERS","MILD",1,"SCREENING 1",-7,"2012-12-22",NA,-14,NA,NA,NA,"BEFORE",NA,"SCREENING","FIRST DOSE OF STUDY DRUG",NA,NA
"421","CDISCPILOT01","MH","01-701-1341",11,NA,"VERBATIM_0919","PNEUMONIA","PNEUMONIA","HLT_0251","HLGT_0671","HISTORICAL DIAGNOSIS","INFECTIONS AND INFESTATIONS",NA,1,"SCREENING 1",-7,"2012-12-22","1983",-14,NA,NA,NA,"BEFORE",NA,"SCREENING","FIRST DOSE OF STUDY DRUG",NA,NA
"422","CDISCPILOT01","MH","01-701-1341",5,"E04","VERBATIM_1049","LIGHTHEADEDNESS","DIZZINESS","HLT_0619","HLGT_0751","SIGNIFICANT PRE-EXISTING CONDITION","NERVOUS SYSTEM DISORDERS","MILD",1,"SCREENING 1",-7,"2012-12-22",NA,-14,NA,NA,NA,"BEFORE",NA,"SCREENING","FIRST DOSE OF STUDY DRUG",NA,NA
"423","CDISCPILOT01","MH","01-701-1341",6,"E03","VERBATIM_1236","COUGH NONPRODUCTIVE","COUGH","HLT_0701","HLGT_0280","SIGNIFICANT PRE-EXISTING CONDITION","RESPIRATORY, THORACIC AND MEDIASTINAL DISORDERS","MILD",1,"SCREENING 1",-7,"2012-12-22",NA,-14,NA,NA,NA,"BEFORE",NA,"SCREENING","FIRST DOSE OF STUDY DRUG",NA,NA
"424","CDISCPILOT01","MH","01-701-1341",13,NA,"VERBATIM_1302","HEAD INJURY","HEAD INJURY","HLT_0201","HLGT_0554","HISTORICAL DIAGNOSIS","INJURY, POISONING AND PROCEDURAL COMPLICATIONS",NA,1,"SCREENING 1",-7,"2012-12-22","2003",-14,NA,NA,NA,"BEFORE",NA,"SCREENING","FIRST DOSE OF STUDY DRUG",NA,NA
"425","CDISCPILOT01","MH","01-701-1341",12,NA,"VERBATIM_1505","NERVE COMPRESSION","NERVE COMPRESSION","HLT_0463","HLGT_0502","HISTORICAL DIAGNOSIS","NERVOUS SYSTEM DISORDERS",NA,1,"SCREENING 1",-7,"2012-12-22","1990",-14,NA,NA,NA,"BEFORE",NA,"SCREENING","FIRST DOSE OF STUDY DRUG",NA,NA
"426","CDISCPILOT01","MH","01-701-1341",7,"E07","VERBATIM_1592","DEPRESSION","DEPRESSION","HLT_0167","HLGT_0582","SIGNIFICANT PRE-EXISTING CONDITION","PSYCHIATRIC DISORDERS","MILD",1,"SCREENING 1",-7,"2012-12-22",NA,-14,NA,NA,NA,"BEFORE",NA,"SCREENING","FIRST DOSE OF STUDY DRUG",NA,NA
"427","CDISCPILOT01","MH","01-701-1341",8,"E06","VERBATIM_1683","HYPEROPIA","HYPERMETROPIA","HLT_0546","HLGT_0646","SIGNIFICANT PRE-EXISTING CONDITION","EYE DISORDERS","MILD",1,"SCREENING 1",-7,"2012-12-22",NA,-14,NA,NA,NA,"BEFORE",NA,"SCREENING","FIRST DOSE OF STUDY DRUG",NA,NA
"428","CDISCPILOT01","MH","01-701-1341",9,NA,"VERBATIM_1716","TONSILLECTOMY","TONSILLECTOMY","HLT_0202","HLGT_0199","HISTORICAL DIAGNOSIS","SURGICAL AND MEDICAL PROCEDURES",NA,1,"SCREENING 1",-7,"2012-12-22","1964",-14,NA,NA,NA,"BEFORE",NA,"SCREENING","FIRST DOSE OF STUDY DRUG",NA,NA
"429","CDISCPILOT01","MH","01-701-1345",8,NA,"ALZHEIMER'S DISEASE",NA,NA,NA,NA,"PRIMARY DIAGNOSIS",NA,NA,1,"SCREENING 1",-7,"2013-10-01","2010-11-05",-7,"2011-06-22","Y","Y",NA,"BEFORE",NA,"SCREENING","BEFORE",NA
"430","CDISCPILOT01","MH","01-701-1345",1,"E01","VERBATIM_0507","PRESBYOPIA","PRESBYOPIA","HLT_0230","HLGT_0759","SIGNIFICANT PRE-EXISTING CONDITION","EYE DISORDERS","MILD",1,"SCREENING 1",-7,"2013-10-01",NA,-7,NA,NA,NA,"BEFORE",NA,"SCREENING","FIRST DOSE OF STUDY DRUG",NA,NA
"431","CDISCPILOT01","MH","01-701-1345",9,NA,"VERBATIM_0837","EAR PAIN","EAR PAIN","HLT_0631","HLGT_0432","HISTORICAL DIAGNOSIS","EAR AND LABYRINTH DISORDERS",NA,1,"SCREENING 1",-7,"2013-10-01","2012",-7,NA,NA,NA,"BEFORE",NA,"SCREENING","FIRST DOSE OF STUDY DRUG",NA,NA
"432","CDISCPILOT01","MH","01-701-1345",6,NA,"VERBATIM_0841","HEARTBURN","DYSPEPSIA","HLT_0244","HLGT_0716","HISTORICAL DIAGNOSIS","GASTROINTESTINAL DISORDERS",NA,1,"SCREENING 1",-7,"2013-10-01","1983",-7,NA,NA,NA,"BEFORE",NA,"SCREENING","FIRST DOSE OF STUDY DRUG",NA,NA
"433","CDISCPILOT01","MH","01-701-1345",2,NA,"VERBATIM_0919","PNEUMONIA","PNEUMONIA","HLT_0251","HLGT_0671","HISTORICAL DIAGNOSIS","INFECTIONS AND INFESTATIONS",NA,1,"SCREENING 1",-7,"2013-10-01","1952",-7,NA,NA,NA,"BEFORE",NA,"SCREENING","FIRST DOSE OF STUDY DRUG",NA,NA
"434","CDISCPILOT01","MH","01-701-1345",7,NA,"VERBATIM_1583","BACK PAIN","BACK PAIN","HLT_0115","HLGT_0508","HISTORICAL DIAGNOSIS","MUSCULOSKELETAL AND CONNECTIVE TISSUE DISORDERS",NA,1,"SCREENING 1",-7,"2013-10-01","2010-03-22",-7,"2010-05-03",NA,NA,"BEFORE","BEFORE","SCREENING","FIRST DOSE OF STUDY DRUG","BEFORE",NA
"435","CDISCPILOT01","MH","01-701-1345",3,NA,"VERBATIM_1716","TONSILLECTOMY","TONSILLECTOMY","HLT_0202","HLGT_0199","HISTORICAL DIAGNOSIS","SURGICAL AND MEDICAL PROCEDURES",NA,1,"SCREENING 1",-7,"2013-10-01","1957",-7,NA,NA,NA,"BEFORE",NA,"SCREENING","FIRST DOSE OF STUDY DRUG",NA,NA
"436","CDISCPILOT01","MH","01-701-1345",4,NA,"VERBATIM_1769","SINUSITIS","SINUSITIS","HLT_0262","HLGT_0249","HISTORICAL DIAGNOSIS","INFECTIONS AND INFESTATIONS",NA,1,"SCREENING 1",-7,"2013-10-01","1963-06-22",-7,"1964-02-19",NA,NA,"BEFORE","BEFORE","SCREENING","FIRST DOSE OF STUDY DRUG","BEFORE",NA
"437","CDISCPILOT01","MH","01-701-1345",5,NA,"VERBATIM_1800","MALIGNANT NASOPHARYNGEAL NEOPLASM","NASOPHARYNGEAL CANCER","HLT_0568","HLGT_0707","HISTORICAL DIAGNOSIS","NEOPLASMS BENIGN, MALIGNANT AND UNSPECIFIED (INCL CYSTS AND POLYPS)",NA,1,"SCREENING 1",-7,"2013-10-01","1972",-7,NA,NA,NA,"BEFORE",NA,"SCREENING","FIRST DOSE OF STUDY DRUG",NA,NA
"438","CDISCPILOT01","MH","01-701-1360",12,NA,"ALZHEIMER'S DISEASE",NA,NA,NA,NA,"PRIMARY DIAGNOSIS",NA,NA,1,"SCREENING 1",-7,"2013-07-24","2008-12-02",-7,"2009-06-13","Y","Y",NA,"BEFORE",NA,"SCREENING","BEFORE",NA
"439","CDISCPILOT01","MH","01-701-1360",1,"E02","VERBATIM_0512","PSORIASIS","PSORIASIS","HLT_0740","HLGT_0038","SIGNIFICANT PRE-EXISTING CONDITION","SKIN AND SUBCUTANEOUS TISSUE DISORDERS","MILD",1,"SCREENING 1",-7,"2013-07-24",NA,-7,NA,NA,NA,"BEFORE",NA,"SCREENING","FIRST DOSE OF STUDY DRUG",NA,NA
"440","CDISCPILOT01","MH","01-701-1360",2,"E07","VERBATIM_0611","DENTURE WEARER","DENTURE WEARER","HLT_0246","HLGT_0763","SIGNIFICANT PRE-EXISTING CONDITION","SOCIAL CIRCUMSTANCES","MILD",1,"SCREENING 1",-7,"2013-07-24",NA,-7,NA,NA,NA,"BEFORE",NA,"SCREENING","FIRST DOSE OF STUDY DRUG",NA,NA
"441","CDISCPILOT01","MH","01-701-1360",3,"E05","VERBATIM_0845","TINNITUS","TINNITUS","HLT_0570","HLGT_0180","SIGNIFICANT PRE-EXISTING CONDITION","EAR AND LABYRINTH DISORDERS","MILD",1,"SCREENING 1",-7,"2013-07-24",NA,-7,NA,NA,NA,"BEFORE",NA,"SCREENING","FIRST DOSE OF STUDY DRUG",NA,NA
"442","CDISCPILOT01","MH","01-701-1360",11,NA,"VERBATIM_0898","HAND FRACTURE","HAND FRACTURE","HLT_0157","HLGT_0169","HISTORICAL DIAGNOSIS","INJURY, POISONING AND PROCEDURAL COMPLICATIONS",NA,1,"SCREENING 1",-7,"2013-07-24","1986",-7,NA,NA,NA,"BEFORE",NA,"SCREENING","FIRST DOSE OF STUDY DRUG",NA,NA
"443","CDISCPILOT01","MH","01-701-1360",4,"E01","VERBATIM_0929","HEADACHE","HEADACHE","HLT_0064","HLGT_0344","SIGNIFICANT PRE-EXISTING CONDITION","NERVOUS SYSTEM DISORDERS","MILD",1,"SCREENING 1",-7,"2013-07-24",NA,-7,NA,NA,NA,"BEFORE",NA,"SCREENING","FIRST DOSE OF STUDY DRUG",NA,NA
"444","CDISCPILOT01","MH","01-701-1360",9,NA,"VERBATIM_0944","COLON ULCER","LARGE INTESTINAL ULCER","HLT_0428","HLGT_0160","HISTORICAL DIAGNOSIS","GASTROINTESTINAL DISORDERS",NA,1,"SCREENING 1",-7,"2013-07-24","1975",-7,NA,NA,NA,"BEFORE",NA,"SCREENING","FIRST DOSE OF STUDY DRUG",NA,NA
"445","CDISCPILOT01","MH","01-701-1360",14,NA,"VERBATIM_1000","ESOPHAGEAL OPERATION","OESOPHAGEAL OPERATION","HLT_0425","HLGT_0425","HISTORICAL DIAGNOSIS","SURGICAL AND MEDICAL PROCEDURES",NA,1,"SCREENING 1",-7,"2013-07-24","2011",-7,NA,NA,NA,"BEFORE",NA,"SCREENING","FIRST DOSE OF STUDY DRUG",NA,NA
"446","CDISCPILOT01","MH","01-701-1360",5,"E04","VERBATIM_1026","JOINT SWELLING","JOINT SWELLING","HLT_0171","HLGT_0417","SIGNIFICANT PRE-EXISTING CONDITION","MUSCULOSKELETAL AND CONNECTIVE TISSUE DISORDERS","MILD",1,"SCREENING 1",-7,"2013-07-24",NA,-7,NA,NA,NA,"BEFORE",NA,"SCREENING","FIRST DOSE OF STUDY DRUG",NA,NA
"447","CDISCPILOT01","MH","01-701-1360",6,"E03","VERBATIM_1048","ARTHRITIS","ARTHRITIS","HLT_0019","HLGT_0587","SIGNIFICANT PRE-EXISTING CONDITION","MUSCULOSKELETAL AND CONNECTIVE TISSUE DISORDERS","MODERATE",1,"SCREENING 1",-7,"2013-07-24",NA,-7,NA,NA,NA,"BEFORE",NA,"SCREENING","FIRST DOSE OF STUDY DRUG",NA,NA
"448","CDISCPILOT01","MH","01-701-1360",10,NA,"VERBATIM_1187","HEMORRHOIDECTOMY","HAEMORRHOID OPERATION","HLT_0300","HLGT_0468","HISTORICAL DIAGNOSIS","SURGICAL AND MEDICAL PROCEDURES",NA,1,"SCREENING 1",-7,"2013-07-24","1976",-7,NA,NA,NA,"BEFORE",NA,"SCREENING","FIRST DOSE OF STUDY DRUG",NA,NA
"449","CDISCPILOT01","MH","01-701-1360",15,NA,"VERBATIM_1594","PLEURISY","PLEURISY","HLT_0268","HLGT_0356","HISTORICAL DIAGNOSIS","RESPIRATORY, THORACIC AND MEDIASTINAL DISORDERS",NA,1,"SCREENING 1",-7,"2013-07-24","2011",-7,NA,NA,NA,"BEFORE",NA,"SCREENING","FIRST DOSE OF STUDY DRUG",NA,NA
"450","CDISCPILOT01","MH","01-701-1360",8,NA,"VERBATIM_1716","TONSILLECTOMY","TONSILLECTOMY","HLT_0202","HLGT_0199","HISTORICAL DIAGNOSIS","SURGICAL AND MEDICAL PROCEDURES",NA,1,"SCREENING 1",-7,"2013-07-24","1965",-7,NA,NA,NA,"BEFORE",NA,"SCREENING","FIRST DOSE OF STUDY DRUG",NA,NA
"451","CDISCPILOT01","MH","01-701-1360",13,NA,"VERBATIM_1753","BREATH SHORTNESS","DYSPNOEA","HLT_0296","HLGT_0255","HISTORICAL DIAGNOSIS","RESPIRATORY, THORACIC AND MEDIASTINAL DISORDERS",NA,1,"SCREENING 1",-7,"2013-07-24","2010",-7,NA,NA,NA,"BEFORE",NA,"SCREENING","FIRST DOSE OF STUDY DRUG",NA,NA
"452","CDISCPILOT01","MH","01-701-1360",7,"E06","VERBATIM_1759","HYPEROPIA","HYPERMETROPIA","HLT_0546","HLGT_0646","SIGNIFICANT PRE-EXISTING CONDITION","EYE DISORDERS","MILD",1,"SCREENING 1",-7,"2013-07-24",NA,-7,NA,NA,NA,"BEFORE",NA,"SCREENING","FIRST DOSE OF STUDY DRUG",NA,NA
"453","CDISCPILOT01","MH","01-701-1363",9,NA,"ALZHEIMER'S DISEASE",NA,NA,NA,NA,"PRIMARY DIAGNOSIS",NA,NA,1,"SCREENING 1",-7,"2013-05-20","2005-10-20",-10,"2006-05-23","Y","Y",NA,"BEFORE",NA,"SCREENING","BEFORE",NA
"454","CDISCPILOT01","MH","01-701-1363",11,NA,"VERBATIM_0030","ARRHYTHMIA","ARRHYTHMIA","HLT_0145","HLGT_0291","HISTORICAL DIAGNOSIS","CARDIAC DISORDERS",NA,1,"SCREENING 1",-7,"2013-05-20","2011",-10,NA,NA,NA,"BEFORE",NA,"SCREENING","FIRST DOSE OF STUDY DRUG",NA,NA
"455","CDISCPILOT01","MH","01-701-1363",1,"E08","VERBATIM_0094","ARTHRITIS","ARTHRITIS","HLT_0019","HLGT_0587","SIGNIFICANT PRE-EXISTING CONDITION","MUSCULOSKELETAL AND CONNECTIVE TISSUE DISORDERS","MILD",1,"SCREENING 1",-7,"2013-05-20",NA,-10,NA,NA,NA,"BEFORE",NA,"SCREENING","FIRST DOSE OF STUDY DRUG",NA,NA
"456","CDISCPILOT01","MH","01-701-1363",2,"E04","VERBATIM_0120","ANEMIA","ANAEMIA","HLT_0378","HLGT_0230","SIGNIFICANT PRE-EXISTING CONDITION","BLOOD AND LYMPHATIC SYSTEM DISORDERS","MILD",1,"SCREENING 1",-7,"2013-05-20",NA,-10,NA,NA,NA,"BEFORE",NA,"SCREENING","FIRST DOSE OF STUDY DRUG",NA,NA
"457","CDISCPILOT01","MH","01-701-1363",3,"E03","VERBATIM_0301","HEADACHE","HEADACHE","HLT_0064","HLGT_0344","SIGNIFICANT PRE-EXISTING CONDITION","NERVOUS SYSTEM DISORDERS","MILD",1,"SCREENING 1",-7,"2013-05-20",NA,-10,NA,NA,NA,"BEFORE",NA,"SCREENING","FIRST DOSE OF STUDY DRUG",NA,NA
"458","CDISCPILOT01","MH","01-701-1363",10,NA,"VERBATIM_0302","CONSCIOUSNESS LOSS","LOSS OF CONSCIOUSNESS","HLT_0529","HLGT_0595","HISTORICAL DIAGNOSIS","NERVOUS SYSTEM DISORDERS",NA,1,"SCREENING 1",-7,"2013-05-20","2007",-10,NA,NA,NA,"BEFORE",NA,"SCREENING","FIRST DOSE OF STUDY DRUG",NA,NA
"459","CDISCPILOT01","MH","01-701-1363",13,NA,"VERBATIM_0336","ECZEMA","ECZEMA","HLT_0747","HLGT_0748","HISTORICAL DIAGNOSIS","SKIN AND SUBCUTANEOUS TISSUE DISORDERS",NA,1,"SCREENING 1",-7,"2013-05-20","2012",-10,NA,NA,NA,"BEFORE",NA,"SCREENING","FIRST DOSE OF STUDY DRUG",NA,NA
"460","CDISCPILOT01","MH","01-701-1363",4,"E06","VERBATIM_0391","HEARING LOSS","DEAFNESS","HLT_0234","HLGT_0025","SIGNIFICANT PRE-EXISTING CONDITION","EAR AND LABYRINTH DISORDERS","MILD",1,"SCREENING 1",-7,"2013-05-20",NA,-10,NA,NA,NA,"BEFORE",NA,"SCREENING","FIRST DOSE OF STUDY DRUG",NA,NA
"461","CDISCPILOT01","MH","01-701-1363",5,"E02","VERBATIM_0443","CONSTIPATION","CONSTIPATION","HLT_0402","HLGT_0635","SIGNIFICANT PRE-EXISTING CONDITION","GASTROINTESTINAL DISORDERS","MILD",1,"SCREENING 1",-7,"2013-05-20",NA,-10,NA,NA,NA,"BEFORE",NA,"SCREENING","FIRST DOSE OF STUDY DRUG",NA,NA
"462","CDISCPILOT01","MH","01-701-1363",6,"E01","VERBATIM_0800","INDIGESTION","DYSPEPSIA","HLT_0244","HLGT_0716","SIGNIFICANT PRE-EXISTING CONDITION","GASTROINTESTINAL DISORDERS","MILD",1,"SCREENING 1",-7,"2013-05-20",NA,-10,NA,NA,NA,"BEFORE",NA,"SCREENING","FIRST DOSE OF STUDY DRUG",NA,NA
"463","CDISCPILOT01","MH","01-701-1363",14,NA,"VERBATIM_0987","PAIN IN HIP","ARTHRALGIA","HLT_0375","HLGT_0610","HISTORICAL DIAGNOSIS","MUSCULOSKELETAL AND CONNECTIVE TISSUE DISORDERS",NA,1,"SCREENING 1",-7,"2013-05-20","2012",-10,NA,NA,NA,"BEFORE",NA,"SCREENING","FIRST DOSE OF STUDY DRUG",NA,NA
"464","CDISCPILOT01","MH","01-701-1363",15,NA,"VERBATIM_1049","LIGHTHEADEDNESS","DIZZINESS","HLT_0619","HLGT_0751","HISTORICAL DIAGNOSIS","NERVOUS SYSTEM DISORDERS",NA,1,"SCREENING 1",-7,"2013-05-20","2012",-10,NA,NA,NA,"BEFORE",NA,"SCREENING","FIRST DOSE OF STUDY DRUG",NA,NA
"465","CDISCPILOT01","MH","01-701-1363",12,NA,"VERBATIM_1405","UPPER BACK PAIN","BACK PAIN","HLT_0115","HLGT_0508","HISTORICAL DIAGNOSIS","MUSCULOSKELETAL AND CONNECTIVE TISSUE DISORDERS",NA,1,"SCREENING 1",-7,"2013-05-20","2011",-10,NA,NA,NA,"BEFORE",NA,"SCREENING","FIRST DOSE OF STUDY DRUG",NA,NA
"466","CDISCPILOT01","MH","01-701-1363",7,"E07","VERBATIM_1460","SHOULDER PAIN","SHOULDER PAIN","HLT_0527","HLGT_0288","SIGNIFICANT PRE-EXISTING CONDITION","MUSCULOSKELETAL AND CONNECTIVE TISSUE DISORDERS","MILD",1,"SCREENING 1",-7,"2013-05-20",NA,-10,NA,NA,NA,"BEFORE",NA,"SCREENING","FIRST DOSE OF STUDY DRUG",NA,NA
"467","CDISCPILOT01","MH","01-701-1363",8,"E05","VERBATIM_1532","MYOPIA","MYOPIA","HLT_0282","HLGT_0271","SIGNIFICANT PRE-EXISTING CONDITION","EYE DISORDERS","MILD",1,"SCREENING 1",-7,"2013-05-20",NA,-10,NA,NA,NA,"BEFORE",NA,"SCREENING","FIRST DOSE OF STUDY DRUG",NA,NA
"468","CDISCPILOT01","MH","01-701-1383",13,NA,"ALZHEIMER'S DISEASE",NA,NA,NA,NA,"PRIMARY DIAGNOSIS",NA,NA,1,"SCREENING 1",-7,"2013-01-22","2006-08-20",-13,"2006-12-07","Y","Y",NA,"BEFORE",NA,"SCREENING","BEFORE",NA
"469","CDISCPILOT01","MH","01-701-1383",4,NA,"VERBATIM_0229","MASTECTOMY","MASTECTOMY","HLT_0729","HLGT_0669","HISTORICAL DIAGNOSIS","SURGICAL AND MEDICAL PROCEDURES",NA,1,"SCREENING 1",-7,"2013-01-22","1966",-13,NA,NA,NA,"BEFORE",NA,"SCREENING","FIRST DOSE OF STUDY DRUG",NA,NA
"470","CDISCPILOT01","MH","01-701-1383",1,"E01","VERBATIM_0443","CONSTIPATION","CONSTIPATION","HLT_0402","HLGT_0635","SIGNIFICANT PRE-EXISTING CONDITION","GASTROINTESTINAL DISORDERS","MILD",1,"SCREENING 1",-7,"2013-01-22",NA,-13,NA,NA,NA,"BEFORE",NA,"SCREENING","FIRST DOSE OF STUDY DRUG",NA,NA
"471","CDISCPILOT01","MH","01-701-1383",5,NA,"VERBATIM_0531","CESAREAN SECTION","CAESAREAN SECTION","HLT_0506","HLGT_0766","HISTORICAL DIAGNOSIS","SURGICAL AND MEDICAL PROCEDURES",NA,1,"SCREENING 1",-7,"2013-01-22","1969",-13,NA,NA,NA,"BEFORE",NA,"SCREENING","FIRST DOSE OF STUDY DRUG",NA,NA
"472","CDISCPILOT01","MH","01-701-1383",7,NA,"VERBATIM_0531","CESAREAN SECTION","CAESAREAN SECTION","HLT_0506","HLGT_0766","HISTORICAL DIAGNOSIS","SURGICAL AND MEDICAL PROCEDURES",NA,1,"SCREENING 1",-7,"2013-01-22","1972",-13,NA,NA,NA,"BEFORE",NA,"SCREENING","FIRST DOSE OF STUDY DRUG",NA,NA
"473","CDISCPILOT01","MH","01-701-1383",8,NA,"VERBATIM_0936","HYSTERECTOMY","HYSTERECTOMY","HLT_0675","HLGT_0657","HISTORICAL DIAGNOSIS","SURGICAL AND MEDICAL PROCEDURES",NA,1,"SCREENING 1",-7,"2013-01-22","1977",-13,NA,NA,NA,"BEFORE",NA,"SCREENING","FIRST DOSE OF STUDY DRUG",NA,NA
"474","CDISCPILOT01","MH","01-701-1383",2,"E02","VERBATIM_1065","TINNITUS","TINNITUS","HLT_0570","HLGT_0180","SIGNIFICANT PRE-EXISTING CONDITION","EAR AND LABYRINTH DISORDERS","MILD",1,"SCREENING 1",-7,"2013-01-22",NA,-13,NA,NA,NA,"BEFORE",NA,"SCREENING","FIRST DOSE OF STUDY DRUG",NA,NA
"475","CDISCPILOT01","MH","01-701-1383",9,NA,"VERBATIM_1187","HEMORRHOIDECTOMY","HAEMORRHOID OPERATION","HLT_0300","HLGT_0468","HISTORICAL DIAGNOSIS","SURGICAL AND MEDICAL PROCEDURES",NA,1,"SCREENING 1",-7,"2013-01-22","1982",-13,NA,NA,NA,"BEFORE",NA,"SCREENING","FIRST DOSE OF STUDY DRUG",NA,NA
"476","CDISCPILOT01","MH","01-701-1383",10,NA,"VERBATIM_1187","HEMORRHOIDECTOMY","HAEMORRHOID OPERATION","HLT_0300","HLGT_0468","HISTORICAL DIAGNOSIS","SURGICAL AND MEDICAL PROCEDURES",NA,1,"SCREENING 1",-7,"2013-01-22","1988",-13,NA,NA,NA,"BEFORE",NA,"SCREENING","FIRST DOSE OF STUDY DRUG",NA,NA
"477","CDISCPILOT01","MH","01-701-1383",11,NA,"VERBATIM_1555","PYELONEPHRITIS","PYELONEPHRITIS","HLT_0307","HLGT_0040","HISTORICAL DIAGNOSIS","INFECTIONS AND INFESTATIONS",NA,1,"SCREENING 1",-7,"2013-01-22","1988",-13,NA,NA,NA,"BEFORE",NA,"SCREENING","FIRST DOSE OF STUDY DRUG",NA,NA
"478","CDISCPILOT01","MH","01-701-1383",3,"E03","VERBATIM_1683","HYPEROPIA","HYPERMETROPIA","HLT_0546","HLGT_0646","SIGNIFICANT PRE-EXISTING CONDITION","EYE DISORDERS","MILD",1,"SCREENING 1",-7,"2013-01-22",NA,-13,NA,NA,NA,"BEFORE",NA,"SCREENING","FIRST DOSE OF STUDY DRUG",NA,NA
"479","CDISCPILOT01","MH","01-701-1383",12,NA,"VERBATIM_1769","SINUSITIS","SINUSITIS","HLT_0262","HLGT_0249","HISTORICAL DIAGNOSIS","INFECTIONS AND INFESTATIONS",NA,1,"SCREENING 1",-7,"2013-01-22","2006",-13,NA,NA,NA,"BEFORE",NA,"SCREENING","FIRST DOSE OF STUDY DRUG",NA,NA
"480","CDISCPILOT01","MH","01-701-1383",6,NA,"VERBATIM_1775","APPENDECTOMY","APPENDICECTOMY","HLT_0707","HLGT_0363","HISTORICAL DIAGNOSIS","SURGICAL AND MEDICAL PROCEDURES",NA,1,"SCREENING 1",-7,"2013-01-22","1969",-13,NA,NA,NA,"BEFORE",NA,"SCREENING","FIRST DOSE OF STUDY DRUG",NA,NA
"481","CDISCPILOT01","MH","01-701-1387",11,NA,"ALZHEIMER'S DISEASE",NA,NA,NA,NA,"PRIMARY DIAGNOSIS",NA,NA,1,"SCREENING 1",-7,"2014-02-23","2003-08-17",-17,"2004-04-16","Y","Y",NA,"BEFORE",NA,"SCREENING","BEFORE",NA
"482","CDISCPILOT01","MH","01-701-1387",1,"E04","VERBATIM_0261","POLYARTHRITIS","POLYARTHRITIS","HLT_0134","HLGT_0167","SIGNIFICANT PRE-EXISTING CONDITION","MUSCULOSKELETAL AND CONNECTIVE TISSUE DISORDERS","MILD",1,"SCREENING 1",-7,"2014-02-23",NA,-17,NA,NA,NA,"BEFORE",NA,"SCREENING","FIRST DOSE OF STUDY DRUG",NA,NA
"483","CDISCPILOT01","MH","01-701-1387",2,"E06","VERBATIM_0827","SNIFFLES","RHINORRHOEA","HLT_0635","HLGT_0460","SIGNIFICANT PRE-EXISTING CONDITION","RESPIRATORY, THORACIC AND MEDIASTINAL DISORDERS","MILD",1,"SCREENING 1",-7,"2014-02-23",NA,-17,NA,NA,NA,"BEFORE",NA,"SCREENING","FIRST DOSE OF STUDY DRUG",NA,NA
"484","CDISCPILOT01","MH","01-701-1387",9,NA,"VERBATIM_0919","PNEUMONIA","PNEUMONIA","HLT_0251","HLGT_0671","HISTORICAL DIAGNOSIS","INFECTIONS AND INFESTATIONS",NA,1,"SCREENING 1",-7,"2014-02-23","1940",-17,NA,NA,NA,"BEFORE",NA,"SCREENING","FIRST DOSE OF STUDY DRUG",NA,NA
"485","CDISCPILOT01","MH","01-701-1387",13,NA,"VERBATIM_0951","BASAL CELL CARCINOMA","BASAL CELL CARCINOMA","HLT_0332","HLGT_0328","HISTORICAL DIAGNOSIS","NEOPLASMS BENIGN, MALIGNANT AND UNSPECIFIED (INCL CYSTS AND POLYPS)",NA,1,"SCREENING 1",-7,"2014-02-23","2011-03",-17,NA,NA,NA,"BEFORE",NA,"SCREENING","FIRST DOSE OF STUDY DRUG",NA,NA
"486","CDISCPILOT01","MH","01-701-1387",3,"E02","VERBATIM_0958","DIZZINESS POSTURAL","DIZZINESS POSTURAL","HLT_0214","HLGT_0070","SIGNIFICANT PRE-EXISTING CONDITION","NERVOUS SYSTEM DISORDERS","MILD",1,"SCREENING 1",-7,"2014-02-23",NA,-17,NA,NA,NA,"BEFORE",NA,"SCREENING","FIRST DOSE OF STUDY DRUG",NA,NA
"487","CDISCPILOT01","MH","01-701-1387",12,NA,"VERBATIM_0982","FELT FAINT","DIZZINESS","HLT_0619","HLGT_0751","HISTORICAL DIAGNOSIS","NERVOUS SYSTEM DISORDERS",NA,1,"SCREENING 1",-7,"2014-02-23","2011",-17,NA,NA,NA,"BEFORE",NA,"SCREENING","FIRST DOSE OF STUDY DRUG",NA,NA
"488","CDISCPILOT01","MH","01-701-1387",4,"E07","VERBATIM_1022","DENTURE WEARER","DENTURE WEARER","HLT_0246","HLGT_0763","SIGNIFICANT PRE-EXISTING CONDITION","SOCIAL CIRCUMSTANCES","MILD",1,"SCREENING 1",-7,"2014-02-23",NA,-17,NA,NA,NA,"BEFORE",NA,"SCREENING","FIRST DOSE OF STUDY DRUG",NA,NA
"489","CDISCPILOT01","MH","01-701-1387",5,"E05","VERBATIM_1340","CATARACTS","CATARACT","HLT_0090","HLGT_0498","SIGNIFICANT PRE-EXISTING CONDITION","EYE DISORDERS","MILD",1,"SCREENING 1",-7,"2014-02-23",NA,-17,NA,NA,NA,"BEFORE",NA,"SCREENING","FIRST DOSE OF STUDY DRUG",NA,NA
"490","CDISCPILOT01","MH","01-701-1387",6,"E01","VERBATIM_1392","ANKLE EDEMA","OEDEMA PERIPHERAL","HLT_0661","HLGT_0137","SIGNIFICANT PRE-EXISTING CONDITION","GENERAL DISORDERS AND ADMINISTRATION SITE CONDITIONS","MILD",1,"SCREENING 1",-7,"2014-02-23",NA,-17,NA,NA,NA,"BEFORE",NA,"SCREENING","FIRST DOSE OF STUDY DRUG",NA,NA
"491","CDISCPILOT01","MH","01-701-1387",8,NA,"VERBATIM_1716","TONSILLECTOMY","TONSILLECTOMY","HLT_0202","HLGT_0199","HISTORICAL DIAGNOSIS","SURGICAL AND MEDICAL PROCEDURES",NA,1,"SCREENING 1",-7,"2014-02-23","1936",-17,NA,NA,NA,"BEFORE",NA,"SCREENING","FIRST DOSE OF STUDY DRUG",NA,NA
"492","CDISCPILOT01","MH","01-701-1387",7,"E03","VERBATIM_1732","NUMBNESS IN HAND","HYPOAESTHESIA","HLT_0014","HLGT_0528","SIGNIFICANT PRE-EXISTING CONDITION","NERVOUS SYSTEM DISORDERS","MILD",1,"SCREENING 1",-7,"2014-02-23",NA,-17,NA,NA,NA,"BEFORE",NA,"SCREENING","FIRST DOSE OF STUDY DRUG",NA,NA
"493","CDISCPILOT01","MH","01-701-1387",10,NA,"VERBATIM_1738","TOOTH EXTRACTION","TOOTH EXTRACTION","HLT_0209","HLGT_0762","HISTORICAL DIAGNOSIS","SURGICAL AND MEDICAL PROCEDURES",NA,1,"SCREENING 1",-7,"2014-02-23","2003",-17,NA,NA,NA,"BEFORE",NA,"SCREENING","FIRST DOSE OF STUDY DRUG",NA,NA
"494","CDISCPILOT01","MH","01-701-1392",5,NA,"ALZHEIMER'S DISEASE",NA,NA,NA,NA,"PRIMARY DIAGNOSIS",NA,NA,1,"SCREENING 1",-7,"2012-10-17","2010-04-25",-11,"2011-04-16","Y","Y",NA,"BEFORE",NA,"SCREENING","BEFORE",NA
"495","CDISCPILOT01","MH","01-701-1392",6,NA,"VERBATIM_0211","TRANSURETHRAL PROSTATECTOMY","TRANSURETHRAL PROSTATECTOMY","HLT_0551","HLGT_0320","HISTORICAL DIAGNOSIS","SURGICAL AND MEDICAL PROCEDURES",NA,1,"SCREENING 1",-7,"2012-10-17","2011-12-28",-11,"2012-10-23",NA,NA,"BEFORE","BEFORE","SCREENING","FIRST DOSE OF STUDY DRUG","BEFORE",NA
"496","CDISCPILOT01","MH","01-701-1392",1,"E01","VERBATIM_0342","HYPERTENSION","HYPERTENSION","HLT_0228","HLGT_0476","SIGNIFICANT PRE-EXISTING CONDITION","VASCULAR DISORDERS","MILD",1,"SCREENING 1",-7,"2012-10-17",NA,-11,NA,NA,NA,"BEFORE",NA,"SCREENING","FIRST DOSE OF STUDY DRUG",NA,NA
"497","CDISCPILOT01","MH","01-701-1392",4,NA,"VERBATIM_0626","TOOTH EXTRACTION","TOOTH EXTRACTION","HLT_0209","HLGT_0762","HISTORICAL DIAGNOSIS","SURGICAL AND MEDICAL PROCEDURES",NA,1,"SCREENING 1",-7,"2012-10-17","2001",-11,NA,NA,NA,"BEFORE",NA,"SCREENING","FIRST DOSE OF STUDY DRUG",NA,NA
"498","CDISCPILOT01","MH","01-701-1392",2,"E03","VERBATIM_1312","DENTURE WEARER","DENTURE WEARER","HLT_0246","HLGT_0763","SIGNIFICANT PRE-EXISTING CONDITION","SOCIAL CIRCUMSTANCES","MILD",1,"SCREENING 1",-7,"2012-10-17",NA,-11,NA,NA,NA,"BEFORE",NA,"SCREENING","FIRST DOSE OF STUDY DRUG",NA,NA
"499","CDISCPILOT01","MH","01-701-1392",3,"E02","VERBATIM_1751","ASTIGMATISM","ASTIGMATISM","HLT_0494","HLGT_0369","SIGNIFICANT PRE-EXISTING CONDITION","EYE DISORDERS","MILD",1,"SCREENING 1",-7,"2012-10-17",NA,-11,NA,NA,NA,"BEFORE",NA,"SCREENING","FIRST DOSE OF STUDY DRUG",NA,NA
"500","CDISCPILOT01","MH","01-701-1415",12,NA,"ALZHEIMER'S DISEASE",NA,NA,NA,NA,"PRIMARY DIAGNOSIS",NA,NA,1,"SCREENING 1",-7,"2013-09-15","1998-06-13",-8,"1998-09-13","Y","Y",NA,"BEFORE",NA,"SCREENING","BEFORE",NA
"501","CDISCPILOT01","MH","01-701-1415",18,NA,"VERBATIM_0048","PAIN TRAUMA ACTIVATED","PAIN TRAUMA ACTIVATED","HLT_0579","HLGT_0732","HISTORICAL DIAGNOSIS","INJURY, POISONING AND PROCEDURAL COMPLICATIONS",NA,1,"SCREENING 1",-7,"2013-09-15","2013-08-10",-8,"2013-12-28",NA,NA,"BEFORE","ONGOING","SCREENING","FIRST DOSE OF STUDY DRUG","DURING",NA
"502","CDISCPILOT01","MH","01-701-1415",17,NA,"VERBATIM_0187","BASAL CELL CARCINOMA","BASAL CELL CARCINOMA","HLT_0332","HLGT_0328","HISTORICAL DIAGNOSIS","NEOPLASMS BENIGN, MALIGNANT AND UNSPECIFIED (INCL CYSTS AND POLYPS)",NA,1,"SCREENING 1",-7,"2013-09-15","2013-06-13",-8,"2013-09-20",NA,NA,"BEFORE","BEFORE","SCREENING","FIRST DOSE OF STUDY DRUG","BEFORE",NA
"503","CDISCPILOT01","MH","01-701-1415",13,NA,"VERBATIM_0472","INGUINAL HERNIA","INGUINAL HERNIA","HLT_0388","HLGT_0368","HISTORICAL DIAGNOSIS","GASTROINTESTINAL DISORDERS",NA,1,"SCREENING 1",-7,"2013-09-15","2008",-8,NA,NA,NA,"BEFORE",NA,"SCREENING","FIRST DOSE OF STUDY DRUG",NA,NA
"504","CDISCPILOT01","MH","01-701-1415",1,"E08","VERBATIM_0524","EPISTAXIS","EPISTAXIS","HLT_0386","HLGT_0577","SIGNIFICANT PRE-EXISTING CONDITION","RESPIRATORY, THORACIC AND MEDIASTINAL DISORDERS","MILD",1,"SCREENING 1",-7,"2013-09-15",NA,-8,NA,NA,NA,"BEFORE",NA,"SCREENING","FIRST DOSE OF STUDY DRUG",NA,NA
"505","CDISCPILOT01","MH","01-701-1415",19,NA,"VERBATIM_0767","BRUISING OF ARM","CONTUSION","HLT_0713","HLGT_0381","HISTORICAL DIAGNOSIS","INJURY, POISONING AND PROCEDURAL COMPLICATIONS",NA,1,"SCREENING 1",-7,"2013-09-15","2013-08-10",-8,"2013-12-16",NA,NA,"BEFORE","ONGOING","SCREENING","FIRST DOSE OF STUDY DRUG","DURING",NA
"506","CDISCPILOT01","MH","01-701-1415",2,"E02","VERBATIM_0929","HEADACHE","HEADACHE","HLT_0064","HLGT_0344","SIGNIFICANT PRE-EXISTING CONDITION","NERVOUS SYSTEM DISORDERS","MILD",1,"SCREENING 1",-7,"2013-09-15",NA,-8,NA,NA,NA,"BEFORE",NA,"SCREENING","FIRST DOSE OF STUDY DRUG",NA,NA
"507","CDISCPILOT01","MH","01-701-1415",20,NA,"VERBATIM_0975","LACERATION OF ARM","SKIN LACERATION","HLT_0075","HLGT_0118","HISTORICAL DIAGNOSIS","INJURY, POISONING AND PROCEDURAL COMPLICATIONS",NA,1,"SCREENING 1",-7,"2013-09-15","2013-08-10",-8,"2014-07-09",NA,NA,"BEFORE","ONGOING","SCREENING","FIRST DOSE OF STUDY DRUG","AFTER",NA
"508","CDISCPILOT01","MH","01-701-1415",15,NA,"VERBATIM_1023","DIVERTICULOSIS","DIVERTICULUM","HLT_0069","HLGT_0141","HISTORICAL DIAGNOSIS","GASTROINTESTINAL DISORDERS",NA,1,"SCREENING 1",-7,"2013-09-15","2012",-8,NA,NA,NA,"BEFORE",NA,"SCREENING","FIRST DOSE OF STUDY DRUG",NA,NA
"509","CDISCPILOT01","MH","01-701-1415",21,NA,"VERBATIM_1252","COLD","NASOPHARYNGITIS","HLT_0036","HLGT_0709","HISTORICAL DIAGNOSIS","INFECTIONS AND INFESTATIONS",NA,1,"SCREENING 1",-7,"2013-09-15","2013-08-22",-8,"2014-05-20",NA,NA,"BEFORE","ONGOING","SCREENING","FIRST DOSE OF STUDY DRUG","AFTER",NA
"510","CDISCPILOT01","MH","01-701-1415",16,NA,"VERBATIM_1284","INFECTION OF THE OUTER EAR","OTITIS EXTERNA","HLT_0673","HLGT_0404","HISTORICAL DIAGNOSIS","INFECTIONS AND INFESTATIONS",NA,1,"SCREENING 1",-7,"2013-09-15","2012-01-23",-8,"2012-05-27",NA,NA,"BEFORE","BEFORE","SCREENING","FIRST DOSE OF STUDY DRUG","BEFORE",NA
"511","CDISCPILOT01","MH","01-701-1415",3,"E01","VERBATIM_1296","DYSPNEA EXERTIONAL","DYSPNOEA EXERTIONAL","HLT_0465","HLGT_0475","SIGNIFICANT PRE-EXISTING CONDITION","RESPIRATORY, THORACIC AND MEDIASTINAL DISORDERS","MILD",1,"SCREENING 1",-7,"2013-09-15",NA,-8,NA,NA,NA,"BEFORE",NA,"SCREENING","FIRST DOSE OF STUDY DRUG",NA,NA
"512","CDISCPILOT01","MH","01-701-1415",4,"E03","VERBATIM_1311","PARESTHESIA HAND","PARAESTHESIA","HLT_0481","HLGT_0534","SIGNIFICANT PRE-EXISTING CONDITION","NERVOUS SYSTEM DISORDERS","MILD",1,"SCREENING 1",-7,"2013-09-15",NA,-8,NA,NA,NA,"BEFORE",NA,"SCREENING","FIRST DOSE OF STUDY DRUG",NA,NA
"513","CDISCPILOT01","MH","01-701-1415",10,NA,"VERBATIM_1334","MIGRAINE","MIGRAINE","HLT_0547","HLGT_0317","HISTORICAL DIAGNOSIS","NERVOUS SYSTEM DISORDERS",NA,1,"SCREENING 1",-7,"2013-09-15","1944",-8,NA,NA,NA,"BEFORE",NA,"SCREENING","FIRST DOSE OF STUDY DRUG",NA,NA
"514","CDISCPILOT01","MH","01-701-1415",5,"E05","VERBATIM_1355","BUNION","BUNION","HLT_0325","HLGT_0256","SIGNIFICANT PRE-EXISTING CONDITION","MUSCULOSKELETAL AND CONNECTIVE TISSUE DISORDERS","MILD",1,"SCREENING 1",-7,"2013-09-15",NA,-8,NA,NA,NA,"BEFORE",NA,"SCREENING","FIRST DOSE OF STUDY DRUG",NA,NA
"515","CDISCPILOT01","MH","01-701-1415",6,"E04","VERBATIM_1461","ARTHRITIS RHEUMATOID","RHEUMATOID ARTHRITIS","HLT_0390","HLGT_0743","SIGNIFICANT PRE-EXISTING CONDITION","MUSCULOSKELETAL AND CONNECTIVE TISSUE DISORDERS","MILD",1,"SCREENING 1",-7,"2013-09-15",NA,-8,NA,NA,NA,"BEFORE",NA,"SCREENING","FIRST DOSE OF STUDY DRUG",NA,NA
"516","CDISCPILOT01","MH","01-701-1415",7,"E07","VERBATIM_1530","MACULAR DEGENERATION","MACULAR DEGENERATION","HLT_0401","HLGT_0370","SIGNIFICANT PRE-EXISTING CONDITION","EYE DISORDERS","MILD",1,"SCREENING 1",-7,"2013-09-15",NA,-8,NA,NA,NA,"BEFORE",NA,"SCREENING","FIRST DOSE OF STUDY DRUG",NA,NA
"517","CDISCPILOT01","MH","01-701-1415",14,NA,"VERBATIM_1548","BORDERLINE DIABETES","GLUCOSE TOLERANCE IMPAIRED","HLT_0063","HLGT_0286","HISTORICAL DIAGNOSIS","METABOLISM AND NUTRITION DISORDERS",NA,1,"SCREENING 1",-7,"2013-09-15","2010",-8,NA,NA,NA,"BEFORE",NA,"SCREENING","FIRST DOSE OF STUDY DRUG",NA,NA
"518","CDISCPILOT01","MH","01-701-1415",11,NA,"VERBATIM_1638","BREATH SHORTNESS","DYSPNOEA","HLT_0296","HLGT_0255","HISTORICAL DIAGNOSIS","RESPIRATORY, THORACIC AND MEDIASTINAL DISORDERS",NA,1,"SCREENING 1",-7,"2013-09-15","1986",-8,NA,NA,NA,"BEFORE",NA,"SCREENING","FIRST DOSE OF STUDY DRUG",NA,NA
"519","CDISCPILOT01","MH","01-701-1415",8,"E06","VERBATIM_1683","HYPEROPIA","HYPERMETROPIA","HLT_0546","HLGT_0646","SIGNIFICANT PRE-EXISTING CONDITION","EYE DISORDERS","MILD",1,"SCREENING 1",-7,"2013-09-15",NA,-8,NA,NA,NA,"BEFORE",NA,"SCREENING","FIRST DOSE OF STUDY DRUG",NA,NA
"520","CDISCPILOT01","MH","01-701-1415",9,NA,"VERBATIM_1716","TONSILLECTOMY","TONSILLECTOMY","HLT_0202","HLGT_0199","HISTORICAL DIAGNOSIS","SURGICAL AND MEDICAL PROCEDURES",NA,1,"SCREENING 1",-7,"2013-09-15","1940",-8,NA,NA,NA,"BEFORE",NA,"SCREENING","FIRST DOSE OF STUDY DRUG",NA,NA
"521","CDISCPILOT01","MH","01-701-1429",3,NA,"ALZHEIMER'S DISEASE",NA,NA,NA,NA,"PRIMARY DIAGNOSIS",NA,NA,1,"SCREENING 1",-7,"2013-02-25","2008-06-17",-22,"2009-02-01","Y","Y",NA,"BEFORE",NA,"SCREENING","BEFORE",NA
"522","CDISCPILOT01","MH","01-701-1429",4,NA,"VERBATIM_0267","HEMORRHOIDS","HAEMORRHOIDS","HLT_0681","HLGT_0485","HISTORICAL DIAGNOSIS","GASTROINTESTINAL DISORDERS",NA,1,"SCREENING 1",-7,"2013-02-25","2009",-22,NA,NA,NA,"BEFORE",NA,"SCREENING","FIRST DOSE OF STUDY DRUG",NA,NA
"523","CDISCPILOT01","MH","01-701-1429",1,"E01","VERBATIM_0929","HEADACHE","HEADACHE","HLT_0064","HLGT_0344","SIGNIFICANT PRE-EXISTING CONDITION","NERVOUS SYSTEM DISORDERS","MILD",1,"SCREENING 1",-7,"2013-02-25",NA,-22,NA,NA,NA,"BEFORE",NA,"SCREENING","FIRST DOSE OF STUDY DRUG",NA,NA
"524","CDISCPILOT01","MH","01-701-1429",2,"E02","VERBATIM_1604","BENIGN NEOPLASM OF EYE","BENIGN NEOPLASM OF EYE","HLT_0038","HLGT_0014","SIGNIFICANT PRE-EXISTING CONDITION","NEOPLASMS BENIGN, MALIGNANT AND UNSPECIFIED (INCL CYSTS AND POLYPS)","MODERATE",1,"SCREENING 1",-7,"2013-02-25",NA,-22,NA,NA,NA,"BEFORE",NA,"SCREENING","FIRST DOSE OF STUDY DRUG",NA,NA
"525","CDISCPILOT01","MH","01-701-1440",6,NA,"ALZHEIMER'S DISEASE",NA,NA,NA,NA,"PRIMARY DIAGNOSIS",NA,NA,1,"SCREENING 1",-7,"2013-07-24","2011-04-07",-15,"2011-12-22","Y","Y",NA,"BEFORE",NA,"SCREENING","BEFORE",NA
"526","CDISCPILOT01","MH","01-701-1440",2,NA,"VERBATIM_0117","CERVICAL VERTEBRAL FRACTURE","CERVICAL VERTEBRAL FRACTURE","HLT_0577","HLGT_0777","HISTORICAL DIAGNOSIS","INJURY, POISONING AND PROCEDURAL COMPLICATIONS",NA,1,"SCREENING 1",-7,"2013-07-24","1995",-15,NA,NA,NA,"BEFORE",NA,"SCREENING","FIRST DOSE OF STUDY DRUG",NA,NA
"527","CDISCPILOT01","MH","01-701-1440",7,NA,"VERBATIM_0293","WEIGHT LOSS","WEIGHT DECREASED","HLT_0158","HLGT_0778","HISTORICAL DIAGNOSIS","INVESTIGATIONS",NA,1,"SCREENING 1",-7,"2013-07-24","2013-05",-15,NA,NA,NA,"BEFORE",NA,"SCREENING","FIRST DOSE OF STUDY DRUG",NA,NA
"528","CDISCPILOT01","MH","01-701-1440",1,"E01","VERBATIM_0507","PRESBYOPIA","PRESBYOPIA","HLT_0230","HLGT_0759","SIGNIFICANT PRE-EXISTING CONDITION","EYE DISORDERS","MILD",1,"SCREENING 1",-7,"2013-07-24",NA,-15,NA,NA,NA,"BEFORE",NA,"SCREENING","FIRST DOSE OF STUDY DRUG",NA,NA
"529","CDISCPILOT01","MH","01-701-1440",3,NA,"VERBATIM_1147","HEMIPLEGIA (LEFT)","HEMIPLEGIA","HLT_0099","HLGT_0678","HISTORICAL DIAGNOSIS","NERVOUS SYSTEM DISORDERS",NA,1,"SCREENING 1",-7,"2013-07-24","1995",-15,NA,NA,NA,"BEFORE",NA,"SCREENING","FIRST DOSE OF STUDY DRUG",NA,NA
"530","CDISCPILOT01","MH","01-701-1440",4,NA,"VERBATIM_1237","LOSS OF CONSCIOUSNESS","LOSS OF CONSCIOUSNESS","HLT_0529","HLGT_0595","HISTORICAL DIAGNOSIS","NERVOUS SYSTEM DISORDERS",NA,1,"SCREENING 1",-7,"2013-07-24","1995",-15,NA,NA,NA,"BEFORE",NA,"SCREENING","FIRST DOSE OF STUDY DRUG",NA,NA
"531","CDISCPILOT01","MH","01-701-1440",5,NA,"VERBATIM_1654","FUSION OF VERTEBRA","SPINAL FUSION SURGERY","HLT_0719","HLGT_0105","HISTORICAL DIAGNOSIS","SURGICAL AND MEDICAL PROCEDURES",NA,1,"SCREENING 1",-7,"2013-07-24","1995",-15,NA,NA,NA,"BEFORE",NA,"SCREENING","FIRST DOSE OF STUDY DRUG",NA,NA
"532","CDISCPILOT01","MH","01-701-1442",4,NA,"ALZHEIMER'S DISEASE",NA,NA,NA,NA,"PRIMARY DIAGNOSIS",NA,NA,1,"SCREENING 1",-7,"2013-10-17","2006-02-20",-9,"2006-10-18","Y","Y",NA,"BEFORE",NA,"SCREENING","BEFORE",NA
"533","CDISCPILOT01","MH","01-701-1442",1,"E01","VERBATIM_0301","HEADACHE","HEADACHE","HLT_0064","HLGT_0344","SIGNIFICANT PRE-EXISTING CONDITION","NERVOUS SYSTEM DISORDERS","MILD",1,"SCREENING 1",-7,"2013-10-17",NA,-9,NA,NA,NA,"BEFORE",NA,"SCREENING","FIRST DOSE OF STUDY DRUG",NA,NA
"534","CDISCPILOT01","MH","01-701-1442",3,NA,"VERBATIM_0936","HYSTERECTOMY","HYSTERECTOMY","HLT_0675","HLGT_0657","HISTORICAL DIAGNOSIS","SURGICAL AND MEDICAL PROCEDURES",NA,1,"SCREENING 1",-7,"2013-10-17","1997",-9,NA,NA,NA,"BEFORE",NA,"SCREENING","FIRST DOSE OF STUDY DRUG",NA,NA
"535","CDISCPILOT01","MH","01-701-1442",2,"E02","VERBATIM_1532","MYOPIA","MYOPIA","HLT_0282","HLGT_0271","SIGNIFICANT PRE-EXISTING CONDITION","EYE DISORDERS","MILD",1,"SCREENING 1",-7,"2013-10-17",NA,-9,NA,NA,NA,"BEFORE",NA,"SCREENING","FIRST DOSE OF STUDY DRUG",NA,NA
"536","CDISCPILOT01","MH","01-701-1444",13,NA,"ALZHEIMER'S DISEASE",NA,NA,NA,NA,"PRIMARY DIAGNOSIS",NA,NA,1,"SCREENING 1",-7,"2012-12-31","2008-05-21",-5,"2008-11-01","Y","Y",NA,"BEFORE",NA,"SCREENING","BEFORE",NA
"537","CDISCPILOT01","MH","01-701-1444",24,NA,"VERBATIM_0250","RECTAL BLEEDING","RECTAL HAEMORRHAGE","HLT_0353","HLGT_0755","HISTORICAL DIAGNOSIS","GASTROINTESTINAL DISORDERS",NA,1,"SCREENING 1",-7,"2012-12-31","2012-11",-5,NA,NA,NA,"BEFORE",NA,"SCREENING","FIRST DOSE OF STUDY DRUG",NA,NA
"538","CDISCPILOT01","MH","01-701-1444",1,"E03","VERBATIM_0255","ENLARGED PROSTATE","BENIGN PROSTATIC HYPERPLASIA","HLT_0215","HLGT_0568","SIGNIFICANT PRE-EXISTING CONDITION","REPRODUCTIVE SYSTEM AND BREAST DISORDERS","MILD",1,"SCREENING 1",-7,"2012-12-31",NA,-5,NA,NA,NA,"BEFORE",NA,"SCREENING","FIRST DOSE OF STUDY DRUG",NA,NA
"539","CDISCPILOT01","MH","01-701-1444",2,"E10","VERBATIM_0443","CONSTIPATION","CONSTIPATION","HLT_0402","HLGT_0635","SIGNIFICANT PRE-EXISTING CONDITION","GASTROINTESTINAL DISORDERS","MILD",1,"SCREENING 1",-7,"2012-12-31",NA,-5,NA,NA,NA,"BEFORE",NA,"SCREENING","FIRST DOSE OF STUDY DRUG",NA,NA
"540","CDISCPILOT01","MH","01-701-1444",21,NA,"VERBATIM_0517","CHEST PAIN","CHEST PAIN","HLT_0717","HLGT_0195","HISTORICAL DIAGNOSIS","GENERAL DISORDERS AND ADMINISTRATION SITE CONDITIONS",NA,1,"SCREENING 1",-7,"2012-12-31","2012",-5,NA,NA,NA,"BEFORE",NA,"SCREENING","FIRST DOSE OF STUDY DRUG",NA,NA
"541","CDISCPILOT01","MH","01-701-1444",15,NA,"VERBATIM_0539","GALLBLADDER STONES","CHOLELITHIASIS","HLT_0084","HLGT_0177","HISTORICAL DIAGNOSIS","HEPATOBILIARY DISORDERS",NA,1,"SCREENING 1",-7,"2012-12-31","2009",-5,NA,NA,NA,"BEFORE",NA,"SCREENING","FIRST DOSE OF STUDY DRUG",NA,NA
"542","CDISCPILOT01","MH","01-701-1444",22,NA,"VERBATIM_0554","ABDOMINAL PAIN","ABDOMINAL PAIN","HLT_0217","HLGT_0419","HISTORICAL DIAGNOSIS","GASTROINTESTINAL DISORDERS",NA,1,"SCREENING 1",-7,"2012-12-31","2012",-5,NA,NA,NA,"BEFORE",NA,"SCREENING","FIRST DOSE OF STUDY DRUG",NA,NA
"543","CDISCPILOT01","MH","01-701-1444",3,"E05","VERBATIM_0560","ELBOW OSTEOARTHRITIS","OSTEOARTHRITIS","HLT_0247","HLGT_0462","SIGNIFICANT PRE-EXISTING CONDITION","MUSCULOSKELETAL AND CONNECTIVE TISSUE DISORDERS","MILD",1,"SCREENING 1",-7,"2012-12-31",NA,-5,NA,NA,NA,"BEFORE",NA,"SCREENING","FIRST DOSE OF STUDY DRUG",NA,NA
"544","CDISCPILOT01","MH","01-701-1444",17,NA,"VERBATIM_0563","INTESTINAL POLYP","INTESTINAL POLYP","HLT_0429","HLGT_0302","HISTORICAL DIAGNOSIS","GASTROINTESTINAL DISORDERS",NA,1,"SCREENING 1",-7,"2012-12-31","2011",-5,NA,NA,NA,"BEFORE",NA,"SCREENING","FIRST DOSE OF STUDY DRUG",NA,NA
"545","CDISCPILOT01","MH","01-701-1444",4,"E01","VERBATIM_0699","HIATAL HERNIA","HIATUS HERNIA","HLT_0159","HLGT_0109","SIGNIFICANT PRE-EXISTING CONDITION","GASTROINTESTINAL DISORDERS","MILD",1,"SCREENING 1",-7,"2012-12-31",NA,-5,NA,NA,NA,"BEFORE",NA,"SCREENING","FIRST DOSE OF STUDY DRUG",NA,NA
"546","CDISCPILOT01","MH","01-701-1444",14,NA,"VERBATIM_0714","SHINGLES","HERPES ZOSTER","HLT_0460","HLGT_0239","HISTORICAL DIAGNOSIS","INFECTIONS AND INFESTATIONS",NA,1,"SCREENING 1",-7,"2012-12-31","2008-08",-5,NA,NA,NA,"BEFORE",NA,"SCREENING","FIRST DOSE OF STUDY DRUG",NA,NA
"547","CDISCPILOT01","MH","01-701-1444",20,NA,"VERBATIM_0721","DUODENAL ULCER","DUODENAL ULCER","HLT_0322","HLGT_0349","HISTORICAL DIAGNOSIS","GASTROINTESTINAL DISORDERS",NA,1,"SCREENING 1",-7,"2012-12-31","2011-11-10",-5,"2011-12-24",NA,NA,"BEFORE","BEFORE","SCREENING","FIRST DOSE OF STUDY DRUG","BEFORE",NA
"548","CDISCPILOT01","MH","01-701-1444",5,"E08","VERBATIM_0771","DENTAL OPERATION","DENTAL OPERATION","HLT_0341","HLGT_0059","SIGNIFICANT PRE-EXISTING CONDITION","SURGICAL AND MEDICAL PROCEDURES","MILD",1,"SCREENING 1",-7,"2012-12-31",NA,-5,NA,NA,NA,"BEFORE",NA,"SCREENING","FIRST DOSE OF STUDY DRUG",NA,NA
"549","CDISCPILOT01","MH","01-701-1444",23,NA,"VERBATIM_0800","INDIGESTION","DYSPEPSIA","HLT_0244","HLGT_0716","HISTORICAL DIAGNOSIS","GASTROINTESTINAL DISORDERS",NA,1,"SCREENING 1",-7,"2012-12-31","2012",-5,NA,NA,NA,"BEFORE",NA,"SCREENING","FIRST DOSE OF STUDY DRUG",NA,NA
"550","CDISCPILOT01","MH","01-701-1444",6,"E04","VERBATIM_0929","HEADACHE","HEADACHE","HLT_0064","HLGT_0344","SIGNIFICANT PRE-EXISTING CONDITION","NERVOUS SYSTEM DISORDERS","MILD",1,"SCREENING 1",-7,"2012-12-31",NA,-5,NA,NA,NA,"BEFORE",NA,"SCREENING","FIRST DOSE OF STUDY DRUG",NA,NA
"551","CDISCPILOT01","MH","01-701-1444",18,NA,"VERBATIM_0929","HEADACHE","HEADACHE","HLT_0064","HLGT_0344","HISTORICAL DIAGNOSIS","NERVOUS SYSTEM DISORDERS",NA,1,"SCREENING 1",-7,"2012-12-31","2011",-5,NA,NA,NA,"BEFORE",NA,"SCREENING","FIRST DOSE OF STUDY DRUG",NA,NA
"552","CDISCPILOT01","MH","01-701-1444",7,"E06","VERBATIM_0978","HEARING LOSS BILATERAL","DEAFNESS BILATERAL","HLT_0567","HLGT_0426","SIGNIFICANT PRE-EXISTING CONDITION","EAR AND LABYRINTH DISORDERS","MILD",1,"SCREENING 1",-7,"2012-12-31",NA,-5,NA,NA,NA,"BEFORE",NA,"SCREENING","FIRST DOSE OF STUDY DRUG",NA,NA
"553","CDISCPILOT01","MH","01-701-1444",11,NA,"VERBATIM_1187","HEMORRHOIDECTOMY","HAEMORRHOID OPERATION","HLT_0300","HLGT_0468","HISTORICAL DIAGNOSIS","SURGICAL AND MEDICAL PROCEDURES",NA,1,"SCREENING 1",-7,"2012-12-31","1978",-5,NA,NA,NA,"BEFORE",NA,"SCREENING","FIRST DOSE OF STUDY DRUG",NA,NA
"554","CDISCPILOT01","MH","01-701-1444",16,NA,"VERBATIM_1324","CHOLECYSTECTOMY","CHOLECYSTECTOMY","HLT_0149","HLGT_0074","HISTORICAL DIAGNOSIS","SURGICAL AND MEDICAL PROCEDURES",NA,1,"SCREENING 1",-7,"2012-12-31","2009",-5,NA,NA,NA,"BEFORE",NA,"SCREENING","FIRST DOSE OF STUDY DRUG",NA,NA
"555","CDISCPILOT01","MH","01-701-1444",8,"E09","VERBATIM_1337","SHOULDER OSTEOARTHRITIS","OSTEOARTHRITIS","HLT_0247","HLGT_0462","SIGNIFICANT PRE-EXISTING CONDITION","MUSCULOSKELETAL AND CONNECTIVE TISSUE DISORDERS","MILD",1,"SCREENING 1",-7,"2012-12-31",NA,-5,NA,NA,NA,"BEFORE",NA,"SCREENING","FIRST DOSE OF STUDY DRUG",NA,NA
"556","CDISCPILOT01","MH","01-701-1444",9,"E02","VERBATIM_1351","EXTERNAL HEMORRHOIDS","HAEMORRHOIDS","HLT_0681","HLGT_0485","SIGNIFICANT PRE-EXISTING CONDITION","GASTROINTESTINAL DISORDERS","MILD",1,"SCREENING 1",-7,"2012-12-31",NA,-5,NA,NA,NA,"BEFORE",NA,"SCREENING","FIRST DOSE OF STUDY DRUG",NA,NA
"557","CDISCPILOT01","MH","01-701-1444",19,NA,"VERBATIM_1356","INTESTINAL POLYPECTOMY","INTESTINAL POLYPECTOMY","HLT_0223","HLGT_0386","HISTORICAL DIAGNOSIS","SURGICAL AND MEDICAL PROCEDURES",NA,1,"SCREENING 1",-7,"2012-12-31","2011",-5,NA,NA,NA,"BEFORE",NA,"SCREENING","FIRST DOSE OF STUDY DRUG",NA,NA
"558","CDISCPILOT01","MH","01-701-1444",10,"E07","VERBATIM_1683","HYPEROPIA","HYPERMETROPIA","HLT_0546","HLGT_0646","SIGNIFICANT PRE-EXISTING CONDITION","EYE DISORDERS","MILD",1,"SCREENING 1",-7,"2012-12-31",NA,-5,NA,NA,NA,"BEFORE",NA,"SCREENING","FIRST DOSE OF STUDY DRUG",NA,NA
"559","CDISCPILOT01","MH","01-701-1444",12,NA,"VERBATIM_1692","VASECTOMY","VASECTOMY","HLT_0108","HLGT_0517","HISTORICAL DIAGNOSIS","SURGICAL AND MEDICAL PROCEDURES",NA,1,"SCREENING 1",-7,"2012-12-31","1986",-5,NA,NA,NA,"BEFORE",NA,"SCREENING","FIRST DOSE OF STUDY DRUG",NA,NA
"560","CDISCPILOT01","MH","01-702-1082",3,NA,"ALZHEIMER'S DISEASE",NA,NA,NA,NA,"PRIMARY DIAGNOSIS",NA,NA,1,"SCREENING 1",-7,"2013-07-03","2007-05-17",-23,"2008-03-22","Y","Y",NA,"BEFORE",NA,"SCREENING","BEFORE",NA
"561","CDISCPILOT01","MH","01-702-1082",1,"E01","VERBATIM_1072","CARDIAC PACEMAKER INSERTION","CARDIAC PACEMAKER INSERTION","HLT_0474","HLGT_0501","SIGNIFICANT PRE-EXISTING CONDITION","SURGICAL AND MEDICAL PROCEDURES","MILD",1,"SCREENING 1",-7,"2013-07-03",NA,-23,NA,NA,NA,"BEFORE",NA,"SCREENING","FIRST DOSE OF STUDY DRUG",NA,NA
"562","CDISCPILOT01","MH","01-702-1082",2,"E05","VERBATIM_1100","AORTIC STENOSIS","AORTIC STENOSIS","HLT_0682","HLGT_0353","SIGNIFICANT PRE-EXISTING CONDITION","VASCULAR DISORDERS","MILD",1,"SCREENING 1",-7,"2013-07-03",NA,-23,NA,NA,NA,"BEFORE",NA,"SCREENING","FIRST DOSE OF STUDY DRUG",NA,NA
"563","CDISCPILOT01","MH","01-703-1042",5,NA,"ALZHEIMER'S DISEASE",NA,NA,NA,NA,"PRIMARY DIAGNOSIS",NA,NA,1,"SCREENING 1",-7,"2013-02-23","2008-07-23",-7,"2008-10-12","Y","Y",NA,"BEFORE",NA,"SCREENING","BEFORE",NA
"564","CDISCPILOT01","MH","01-703-1042",1,"E02","VERBATIM_0087","EMPHYSEMA","EMPHYSEMA","HLT_0698","HLGT_0221","SIGNIFICANT PRE-EXISTING CONDITION","RESPIRATORY, THORACIC AND MEDIASTINAL DISORDERS","MILD",1,"SCREENING 1",-7,"2013-02-23",NA,-7,NA,NA,NA,"BEFORE",NA,"SCREENING","FIRST DOSE OF STUDY DRUG",NA,NA
"565","CDISCPILOT01","MH","01-703-1042",2,"E01","VERBATIM_0409","CORONARY ARTERY DISEASE","CORONARY ARTERY DISEASE","HLT_0261","HLGT_0248","SIGNIFICANT PRE-EXISTING CONDITION","CARDIAC DISORDERS","MILD",1,"SCREENING 1",-7,"2013-02-23",NA,-7,NA,NA,NA,"BEFORE",NA,"SCREENING","FIRST DOSE OF STUDY DRUG",NA,NA
"566","CDISCPILOT01","MH","01-703-1042",4,NA,"VERBATIM_1084","LUNG ABSCESS DRAINAGE","ABSCESS DRAINAGE","HLT_0316","HLGT_0416","HISTORICAL DIAGNOSIS","SURGICAL AND MEDICAL PROCEDURES",NA,1,"SCREENING 1",-7,"2013-02-23","1997",-7,NA,NA,NA,"BEFORE",NA,"SCREENING","FIRST DOSE OF STUDY DRUG",NA,NA
"567","CDISCPILOT01","MH","01-703-1042",6,NA,"VERBATIM_1169","INTESTINAL POLYPECTOMY","INTESTINAL POLYPECTOMY","HLT_0223","HLGT_0386","HISTORICAL DIAGNOSIS","SURGICAL AND MEDICAL PROCEDURES",NA,1,"SCREENING 1",-7,"2013-02-23","2009",-7,NA,NA,NA,"BEFORE",NA,"SCREENING","FIRST DOSE OF STUDY DRUG",NA,NA
"568","CDISCPILOT01","MH","01-703-1042",3,"E03","VERBATIM_1309","ARTHRITIS","ARTHRITIS","HLT_0019","HLGT_0587","SIGNIFICANT PRE-EXISTING CONDITION","MUSCULOSKELETAL AND CONNECTIVE TISSUE DISORDERS","MILD",1,"SCREENING 1",-7,"2013-02-23",NA,-7,NA,NA,NA,"BEFORE",NA,"SCREENING","FIRST DOSE OF STUDY DRUG",NA,NA
"569","CDISCPILOT01","MH","01-703-1076",5,NA,"ALZHEIMER'S DISEASE",NA,NA,NA,NA,"PRIMARY DIAGNOSIS",NA,NA,1,"SCREENING 1",-7,"2013-10-17","2012-08-27",-8,"2012-09-27","Y","Y",NA,"BEFORE",NA,"SCREENING","BEFORE",NA
"570","CDISCPILOT01","MH","01-703-1076",1,"E05","VERBATIM_0164","HYPERCHOLESTEROLEMIA","HYPERCHOLESTEROLAEMIA","HLT_0025","HLGT_0703","SIGNIFICANT PRE-EXISTING CONDITION","METABOLISM AND NUTRITION DISORDERS","MILD",1,"SCREENING 1",-7,"2013-10-17",NA,-8,NA,NA,NA,"BEFORE",NA,"SCREENING","FIRST DOSE OF STUDY DRUG",NA,NA
"571","CDISCPILOT01","MH","01-703-1076",2,"E03","VERBATIM_0308","GLAUCOMA","GLAUCOMA","HLT_0556","HLGT_0734","SIGNIFICANT PRE-EXISTING CONDITION","EYE DISORDERS","MILD",1,"SCREENING 1",-7,"2013-10-17",NA,-8,NA,NA,NA,"BEFORE",NA,"SCREENING","FIRST DOSE OF STUDY DRUG",NA,NA
"572","CDISCPILOT01","MH","01-703-1076",3,"E04","VERBATIM_0342","HYPERTENSION","HYPERTENSION","HLT_0228","HLGT_0476","SIGNIFICANT PRE-EXISTING CONDITION","VASCULAR DISORDERS","MILD",1,"SCREENING 1",-7,"2013-10-17",NA,-8,NA,NA,NA,"BEFORE",NA,"SCREENING","FIRST DOSE OF STUDY DRUG",NA,NA
"573","CDISCPILOT01","MH","01-703-1076",4,"E06","VERBATIM_0980","GOUT","GOUT","HLT_0396","HLGT_0479","SIGNIFICANT PRE-EXISTING CONDITION","METABOLISM AND NUTRITION DISORDERS","MILD",1,"SCREENING 1",-7,"2013-10-17",NA,-8,NA,NA,NA,"BEFORE",NA,"SCREENING","FIRST DOSE OF STUDY DRUG",NA,NA
"574","CDISCPILOT01","MH","01-703-1086",1,NA,"ALZHEIMER'S DISEASE",NA,NA,NA,NA,"PRIMARY DIAGNOSIS",NA,NA,1,"SCREENING 1",-7,"2012-08-22","2011-04-27",-11,"2012-05-08","Y","Y",NA,"BEFORE",NA,"SCREENING","BEFORE",NA
"575","CDISCPILOT01","MH","01-703-1096",2,NA,"ALZHEIMER'S DISEASE",NA,NA,NA,NA,"PRIMARY DIAGNOSIS",NA,NA,1,"SCREENING 1",-7,"2012-12-19","2006-12-20",-37,"2007-05-08","Y","Y",NA,"BEFORE",NA,"SCREENING","BEFORE",NA
"576","CDISCPILOT01","MH","01-703-1096",1,"E01","VERBATIM_0786","HEARING DECREASED","HYPOACUSIS","HLT_0174","HLGT_0589","SIGNIFICANT PRE-EXISTING CONDITION","EAR AND LABYRINTH DISORDERS","MILD",1,"SCREENING 1",-7,"2012-12-19",NA,-37,NA,NA,NA,"BEFORE",NA,"SCREENING","FIRST DOSE OF STUDY DRUG",NA,NA
"577","CDISCPILOT01","MH","01-703-1100",6,NA,"ALZHEIMER'S DISEASE",NA,NA,NA,NA,"PRIMARY DIAGNOSIS",NA,NA,1,"SCREENING 1",-7,"2013-02-28","2010-12-02",-13,"2011-09-09","Y","Y",NA,"BEFORE",NA,"SCREENING","BEFORE",NA
"578","CDISCPILOT01","MH","01-703-1100",1,"E02","VERBATIM_0569","HEARING DECREASED","HYPOACUSIS","HLT_0174","HLGT_0589","SIGNIFICANT PRE-EXISTING CONDITION","EAR AND LABYRINTH DISORDERS","MILD",1,"SCREENING 1",-7,"2013-02-28",NA,-13,NA,NA,NA,"BEFORE",NA,"SCREENING","FIRST DOSE OF STUDY DRUG",NA,NA
"579","CDISCPILOT01","MH","01-703-1100",2,"E03","VERBATIM_1437","HEADACHE","HEADACHE","HLT_0064","HLGT_0344","SIGNIFICANT PRE-EXISTING CONDITION","NERVOUS SYSTEM DISORDERS","MILD",1,"SCREENING 1",-7,"2013-02-28",NA,-13,NA,NA,NA,"BEFORE",NA,"SCREENING","FIRST DOSE OF STUDY DRUG",NA,NA
"580","CDISCPILOT01","MH","01-703-1100",3,"E05","VERBATIM_1490","MYOCARDIAL INFARCTION","MYOCARDIAL INFARCTION","HLT_0649","HLGT_0688","SIGNIFICANT PRE-EXISTING CONDITION","CARDIAC DISORDERS","MILD",1,"SCREENING 1",-7,"2013-02-28",NA,-13,NA,NA,NA,"BEFORE",NA,"SCREENING","FIRST DOSE OF STUDY DRUG",NA,NA
"581","CDISCPILOT01","MH","01-703-1100",4,"E01","VERBATIM_1512","HYPOTHYROIDISM","HYPOTHYROIDISM","HLT_0454","HLGT_0558","SIGNIFICANT PRE-EXISTING CONDITION","ENDOCRINE DISORDERS","MILD",1,"SCREENING 1",-7,"2013-02-28",NA,-13,NA,NA,NA,"BEFORE",NA,"SCREENING","FIRST DOSE OF STUDY DRUG",NA,NA
"582","CDISCPILOT01","MH","01-703-1100",5,"E07","VERBATIM_1652","LEG EDEMA","OEDEMA PERIPHERAL","HLT_0661","HLGT_0137","SIGNIFICANT PRE-EXISTING CONDITION","GENERAL DISORDERS AND ADMINISTRATION SITE CONDITIONS","MILD",1,"SCREENING 1",-7,"2013-02-28",NA,-13,NA,NA,NA,"BEFORE",NA,"SCREENING","FIRST DOSE OF STUDY DRUG",NA,NA
"583","CDISCPILOT01","MH","01-703-1119",6,NA,"ALZHEIMER'S DISEASE",NA,NA,NA,NA,"PRIMARY DIAGNOSIS",NA,NA,1,"SCREENING 1",-7,"2013-02-02","2005-02-01",-18,"2005-11-24","Y","Y",NA,"BEFORE",NA,"SCREENING","BEFORE",NA
"584","CDISCPILOT01","MH","01-703-1119",1,"E01","VERBATIM_0164","HYPERCHOLESTEROLEMIA","HYPERCHOLESTEROLAEMIA","HLT_0025","HLGT_0703","SIGNIFICANT PRE-EXISTING CONDITION","METABOLISM AND NUTRITION DISORDERS","MILD",1,"SCREENING 1",-7,"2013-02-02",NA,-18,NA,NA,NA,"BEFORE",NA,"SCREENING","FIRST DOSE OF STUDY DRUG",NA,NA
"585","CDISCPILOT01","MH","01-703-1119",2,"E02","VERBATIM_0409","CORONARY ARTERY DISEASE","CORONARY ARTERY DISEASE","HLT_0261","HLGT_0248","SIGNIFICANT PRE-EXISTING CONDITION","CARDIAC DISORDERS","MILD",1,"SCREENING 1",-7,"2013-02-02",NA,-18,NA,NA,NA,"BEFORE",NA,"SCREENING","FIRST DOSE OF STUDY DRUG",NA,NA
"586","CDISCPILOT01","MH","01-703-1119",3,NA,"VERBATIM_0433","RHEUMATIC FEVER","RHEUMATIC FEVER","HLT_0366","HLGT_0428","HISTORICAL DIAGNOSIS","MUSCULOSKELETAL AND CONNECTIVE TISSUE DISORDERS",NA,1,"SCREENING 1",-7,"2013-02-02","1941",-18,NA,NA,NA,"BEFORE",NA,"SCREENING","FIRST DOSE OF STUDY DRUG",NA,NA
"587","CDISCPILOT01","MH","01-703-1119",9,NA,"VERBATIM_1339","FRACTURE TREATMENT","FRACTURE TREATMENT","HLT_0650","HLGT_0620","HISTORICAL DIAGNOSIS","SURGICAL AND MEDICAL PROCEDURES",NA,1,"SCREENING 1",-7,"2013-02-02","2011-12-02",-18,"2012-06-24",NA,NA,"BEFORE","BEFORE","SCREENING","FIRST DOSE OF STUDY DRUG","BEFORE",NA
"588","CDISCPILOT01","MH","01-703-1119",4,NA,"VERBATIM_1345","CARDIAC CATHETERIZATION","CATHETERISATION CARDIAC","HLT_0699","HLGT_0454","HISTORICAL DIAGNOSIS","INVESTIGATIONS",NA,1,"SCREENING 1",-7,"2013-02-02","2005",-18,NA,NA,NA,"BEFORE",NA,"SCREENING","FIRST DOSE OF STUDY DRUG",NA,NA
"589","CDISCPILOT01","MH","01-703-1119",7,NA,"VERBATIM_1345","CARDIAC CATHETERIZATION","CATHETERISATION CARDIAC","HLT_0699","HLGT_0454","HISTORICAL DIAGNOSIS","INVESTIGATIONS",NA,1,"SCREENING 1",-7,"2013-02-02","2006",-18,NA,NA,NA,"BEFORE",NA,"SCREENING","FIRST DOSE OF STUDY DRUG",NA,NA
"590","CDISCPILOT01","MH","01-703-1119",5,NA,"VERBATIM_1440","ANGIOPLASTY","ANGIOPLASTY","HLT_0263","HLGT_0251","HISTORICAL DIAGNOSIS","SURGICAL AND MEDICAL PROCEDURES",NA,1,"SCREENING 1",-7,"2013-02-02","2005",-18,NA,NA,NA,"BEFORE",NA,"SCREENING","FIRST DOSE OF STUDY DRUG",NA,NA
"591","CDISCPILOT01","MH","01-703-1119",8,NA,"VERBATIM_1440","ANGIOPLASTY","ANGIOPLASTY","HLT_0263","HLGT_0251","HISTORICAL DIAGNOSIS","SURGICAL AND MEDICAL PROCEDURES",NA,1,"SCREENING 1",-7,"2013-02-02","2008",-18,NA,NA,NA,"BEFORE",NA,"SCREENING","FIRST DOSE OF STUDY DRUG",NA,NA
"592","CDISCPILOT01","MH","01-703-1175",6,NA,"ALZHEIMER'S DISEASE",NA,NA,NA,NA,"PRIMARY DIAGNOSIS",NA,NA,1,"SCREENING 1",-7,"2013-12-13","2010-09-19",-7,"2010-11-13","Y","Y",NA,"BEFORE",NA,"SCREENING","BEFORE",NA
"593","CDISCPILOT01","MH","01-703-1175",1,"E05","VERBATIM_0042","SEASONAL ALLERGY","SEASONAL ALLERGY","HLT_0714","HLGT_0782","SIGNIFICANT PRE-EXISTING CONDITION","IMMUNE SYSTEM DISORDERS","MILD",1,"SCREENING 1",-7,"2013-12-13",NA,-7,NA,NA,NA,"BEFORE",NA,"SCREENING","FIRST DOSE OF STUDY DRUG",NA,NA
"594","CDISCPILOT01","MH","01-703-1175",2,"E03","VERBATIM_0353","RIGHT BUNDLE BRANCH BLOCK","BUNDLE BRANCH BLOCK RIGHT","HLT_0751","HLGT_0597","SIGNIFICANT PRE-EXISTING CONDITION","CARDIAC DISORDERS","MILD",1,"SCREENING 1",-7,"2013-12-13",NA,-7,NA,NA,NA,"BEFORE",NA,"SCREENING","FIRST DOSE OF STUDY DRUG",NA,NA
"595","CDISCPILOT01","MH","01-703-1175",3,"E04","VERBATIM_0559","LEFT ANTERIOR HEMIBLOCK","BUNDLE BRANCH BLOCK LEFT","HLT_0281","HLGT_0721","SIGNIFICANT PRE-EXISTING CONDITION","CARDIAC DISORDERS","MILD",1,"SCREENING 1",-7,"2013-12-13",NA,-7,NA,NA,NA,"BEFORE",NA,"SCREENING","FIRST DOSE OF STUDY DRUG",NA,NA
"596","CDISCPILOT01","MH","01-703-1175",4,"E06","VERBATIM_0817","LUNG NODULE","LUNG NEOPLASM","HLT_0483","HLGT_0364","SIGNIFICANT PRE-EXISTING CONDITION","NEOPLASMS BENIGN, MALIGNANT AND UNSPECIFIED (INCL CYSTS AND POLYPS)","MILD",1,"SCREENING 1",-7,"2013-12-13",NA,-7,NA,NA,NA,"BEFORE",NA,"SCREENING","FIRST DOSE OF STUDY DRUG",NA,NA
"597","CDISCPILOT01","MH","01-703-1175",5,"E02","VERBATIM_1410","ATRIOVENTRICULAR BLOCK FIRST DEGREE","ATRIOVENTRICULAR BLOCK FIRST DEGREE","HLT_0419","HLGT_0464","SIGNIFICANT PRE-EXISTING CONDITION","CARDIAC DISORDERS","MILD",1,"SCREENING 1",-7,"2013-12-13",NA,-7,NA,NA,NA,"BEFORE",NA,"SCREENING","FIRST DOSE OF STUDY DRUG",NA,NA
"598","CDISCPILOT01","MH","01-703-1182",8,NA,"ALZHEIMER'S DISEASE",NA,NA,NA,NA,"PRIMARY DIAGNOSIS",NA,NA,1,"SCREENING 1",-7,"2013-10-08","2011-09-27",-9,"2011-12-01","Y","Y",NA,"BEFORE",NA,"SCREENING","BEFORE",NA
"599","CDISCPILOT01","MH","01-703-1182",1,"E06","VERBATIM_0164","HYPERCHOLESTEROLEMIA","HYPERCHOLESTEROLAEMIA","HLT_0025","HLGT_0703","SIGNIFICANT PRE-EXISTING CONDITION","METABOLISM AND NUTRITION DISORDERS","MILD",1,"SCREENING 1",-7,"2013-10-08",NA,-9,NA,NA,NA,"BEFORE",NA,"SCREENING","FIRST DOSE OF STUDY DRUG",NA,NA
"600","CDISCPILOT01","MH","01-703-1182",2,"E03","VERBATIM_0220","CARDIAC PACEMAKER INSERTION","CARDIAC PACEMAKER INSERTION","HLT_0474","HLGT_0501","SIGNIFICANT PRE-EXISTING CONDITION","SURGICAL AND MEDICAL PROCEDURES","MILD",1,"SCREENING 1",-7,"2013-10-08",NA,-9,NA,NA,NA,"BEFORE",NA,"SCREENING","FIRST DOSE OF STUDY DRUG",NA,NA
"601","CDISCPILOT01","MH","01-703-1182",3,"E02","VERBATIM_0342","HYPERTENSION","HYPERTENSION","HLT_0228","HLGT_0476","SIGNIFICANT PRE-EXISTING CONDITION","VASCULAR DISORDERS","MILD",1,"SCREENING 1",-7,"2013-10-08",NA,-9,NA,NA,NA,"BEFORE",NA,"SCREENING","FIRST DOSE OF STUDY DRUG",NA,NA
"602","CDISCPILOT01","MH","01-703-1182",4,"E01","VERBATIM_0584","HEARING DECREASED","HYPOACUSIS","HLT_0174","HLGT_0589","SIGNIFICANT PRE-EXISTING CONDITION","EAR AND LABYRINTH DISORDERS","MODERATE",1,"SCREENING 1",-7,"2013-10-08",NA,-9,NA,NA,NA,"BEFORE",NA,"SCREENING","FIRST DOSE OF STUDY DRUG",NA,NA
"603","CDISCPILOT01","MH","01-703-1182",6,NA,"VERBATIM_0614","HEART BLOCK","ATRIOVENTRICULAR BLOCK","HLT_0389","HLGT_0278","HISTORICAL DIAGNOSIS","CARDIAC DISORDERS",NA,1,"SCREENING 1",-7,"2013-10-08","2007",-9,NA,NA,NA,"BEFORE",NA,"SCREENING","FIRST DOSE OF STUDY DRUG",NA,NA
"604","CDISCPILOT01","MH","01-703-1182",7,NA,"VERBATIM_0941","CARDIAC PACEMAKER INSERTION","CARDIAC PACEMAKER INSERTION","HLT_0474","HLGT_0501","HISTORICAL DIAGNOSIS","SURGICAL AND MEDICAL PROCEDURES",NA,1,"SCREENING 1",-7,"2013-10-08","2007",-9,NA,NA,NA,"BEFORE",NA,"SCREENING","FIRST DOSE OF STUDY DRUG",NA,NA
"605","CDISCPILOT01","MH","01-703-1182",5,"E04","VERBATIM_1629","SKIN RASH","RASH","HLT_0762","HLGT_0198","SIGNIFICANT PRE-EXISTING CONDITION","SKIN AND SUBCUTANEOUS TISSUE DISORDERS","MODERATE",1,"SCREENING 1",-7,"2013-10-08",NA,-9,NA,NA,NA,"BEFORE",NA,"SCREENING","FIRST DOSE OF STUDY DRUG",NA,NA
"606","CDISCPILOT01","MH","01-703-1197",2,NA,"ALZHEIMER'S DISEASE",NA,NA,NA,NA,"PRIMARY DIAGNOSIS",NA,NA,1,"SCREENING 1",-7,"2013-06-01","2012-01-11",-15,"2012-10-24","Y","Y",NA,"BEFORE",NA,"SCREENING","BEFORE",NA
"607","CDISCPILOT01","MH","01-703-1197",1,"E01","VERBATIM_0112","EDEMA OF EXTREMITIES","OEDEMA PERIPHERAL","HLT_0661","HLGT_0137","SIGNIFICANT PRE-EXISTING CONDITION","GENERAL DISORDERS AND ADMINISTRATION SITE CONDITIONS","MILD",1,"SCREENING 1",-7,"2013-06-01",NA,-15,NA,NA,NA,"BEFORE",NA,"SCREENING","FIRST DOSE OF STUDY DRUG",NA,NA
"608","CDISCPILOT01","MH","01-703-1210",5,NA,"ALZHEIMER'S DISEASE",NA,NA,NA,NA,"PRIMARY DIAGNOSIS",NA,NA,1,"SCREENING 1",-7,"2013-03-08","2010-02-18",-8,"2010-09-12","Y","Y",NA,"BEFORE",NA,"SCREENING","BEFORE",NA
"609","CDISCPILOT01","MH","01-703-1210",3,NA,"VERBATIM_0227","TONGUE OPERATION","TONGUE OPERATION","HLT_0182","HLGT_0383","HISTORICAL DIAGNOSIS","SURGICAL AND MEDICAL PROCEDURES",NA,1,"SCREENING 1",-7,"2013-03-08","1975",-8,NA,NA,NA,"BEFORE",NA,"SCREENING","FIRST DOSE OF STUDY DRUG",NA,NA
"610","CDISCPILOT01","MH","01-703-1210",1,"E02","VERBATIM_1201","OSTEOPOROSIS","OSTEOPOROSIS","HLT_0381","HLGT_0634","SIGNIFICANT PRE-EXISTING CONDITION","MUSCULOSKELETAL AND CONNECTIVE TISSUE DISORDERS","MILD",1,"SCREENING 1",-7,"2013-03-08",NA,-8,NA,NA,NA,"BEFORE",NA,"SCREENING","FIRST DOSE OF STUDY DRUG",NA,NA
"611","CDISCPILOT01","MH","01-703-1210",2,"E03","VERBATIM_1513","EDEMATOUS FEET","OEDEMA PERIPHERAL","HLT_0661","HLGT_0137","SIGNIFICANT PRE-EXISTING CONDITION","GENERAL DISORDERS AND ADMINISTRATION SITE CONDITIONS","MODERATE",1,"SCREENING 1",-7,"2013-03-08",NA,-8,NA,NA,NA,"BEFORE",NA,"SCREENING","FIRST DOSE OF STUDY DRUG",NA,NA
"612","CDISCPILOT01","MH","01-703-1210",4,NA,"VERBATIM_1591","ORAL CANCER STAGE UNSPECIFIED","LIP AND/OR ORAL CAVITY CANCER","HLT_0543","HLGT_0536","HISTORICAL DIAGNOSIS","NEOPLASMS BENIGN, MALIGNANT AND UNSPECIFIED (INCL CYSTS AND POLYPS)",NA,1,"SCREENING 1",-7,"2013-03-08","1975",-8,NA,NA,NA,"BEFORE",NA,"SCREENING","FIRST DOSE OF STUDY DRUG",NA,NA
"613","CDISCPILOT01","MH","01-703-1258",8,NA,"ALZHEIMER'S DISEASE",NA,NA,NA,NA,"PRIMARY DIAGNOSIS",NA,NA,1,"SCREENING 1",-7,"2012-07-10","2006-02-17",-10,"2007-03-04","Y","Y",NA,"BEFORE",NA,"SCREENING","BEFORE",NA
"614","CDISCPILOT01","MH","01-703-1258",1,"E04","VERBATIM_0164","HYPERCHOLESTEROLEMIA","HYPERCHOLESTEROLAEMIA","HLT_0025","HLGT_0703","SIGNIFICANT PRE-EXISTING CONDITION","METABOLISM AND NUTRITION DISORDERS","MILD",1,"SCREENING 1",-7,"2012-07-10",NA,-10,NA,NA,NA,"BEFORE",NA,"SCREENING","FIRST DOSE OF STUDY DRUG",NA,NA
"615","CDISCPILOT01","MH","01-703-1258",2,"E02","VERBATIM_0308","GLAUCOMA","GLAUCOMA","HLT_0556","HLGT_0734","SIGNIFICANT PRE-EXISTING CONDITION","EYE DISORDERS","MODERATE",1,"SCREENING 1",-7,"2012-07-10",NA,-10,NA,NA,NA,"BEFORE",NA,"SCREENING","FIRST DOSE OF STUDY DRUG",NA,NA
"616","CDISCPILOT01","MH","01-703-1258",3,"E03","VERBATIM_0342","HYPERTENSION","HYPERTENSION","HLT_0228","HLGT_0476","SIGNIFICANT PRE-EXISTING CONDITION","VASCULAR DISORDERS","MILD",1,"SCREENING 1",-7,"2012-07-10",NA,-10,NA,NA,NA,"BEFORE",NA,"SCREENING","FIRST DOSE OF STUDY DRUG",NA,NA
"617","CDISCPILOT01","MH","01-703-1258",11,NA,"VERBATIM_0657","ESOPHAGEAL STENOSIS","OESOPHAGEAL STENOSIS","HLT_0741","HLGT_0704","HISTORICAL DIAGNOSIS","GASTROINTESTINAL DISORDERS",NA,1,"SCREENING 1",-7,"2012-07-10","2011-05",-10,NA,NA,NA,"BEFORE",NA,"SCREENING","FIRST DOSE OF STUDY DRUG",NA,NA
"618","CDISCPILOT01","MH","01-703-1258",9,NA,"VERBATIM_0764","BLADDER PROLAPSE","BLADDER PROLAPSE","HLT_0502","HLGT_0048","HISTORICAL DIAGNOSIS","RENAL AND URINARY DISORDERS",NA,1,"SCREENING 1",-7,"2012-07-10","2010-04",-10,NA,NA,NA,"BEFORE",NA,"SCREENING","FIRST DOSE OF STUDY DRUG",NA,NA
"619","CDISCPILOT01","MH","01-703-1258",4,"E05","VERBATIM_0875","DIABETES","DIABETES MELLITUS","HLT_0447","HLGT_0572","SIGNIFICANT PRE-EXISTING CONDITION","METABOLISM AND NUTRITION DISORDERS","MILD",1,"SCREENING 1",-7,"2012-07-10",NA,-10,NA,NA,NA,"BEFORE",NA,"SCREENING","FIRST DOSE OF STUDY DRUG",NA,NA
"620","CDISCPILOT01","MH","01-703-1258",10,NA,"VERBATIM_0936","HYSTERECTOMY","HYSTERECTOMY","HLT_0675","HLGT_0657","HISTORICAL DIAGNOSIS","SURGICAL AND MEDICAL PROCEDURES",NA,1,"SCREENING 1",-7,"2012-07-10","2010-04",-10,NA,NA,NA,"BEFORE",NA,"SCREENING","FIRST DOSE OF STUDY DRUG",NA,NA
"621","CDISCPILOT01","MH","01-703-1258",5,"E01","VERBATIM_1309","ARTHRITIS","ARTHRITIS","HLT_0019","HLGT_0587","SIGNIFICANT PRE-EXISTING CONDITION","MUSCULOSKELETAL AND CONNECTIVE TISSUE DISORDERS","MILD",1,"SCREENING 1",-7,"2012-07-10",NA,-10,NA,NA,NA,"BEFORE",NA,"SCREENING","FIRST DOSE OF STUDY DRUG",NA,NA
"622","CDISCPILOT01","MH","01-703-1258",6,"E06","VERBATIM_1533","DIZZINESS","DIZZINESS","HLT_0619","HLGT_0751","SIGNIFICANT PRE-EXISTING CONDITION","NERVOUS SYSTEM DISORDERS","MILD",1,"SCREENING 1",-7,"2012-07-10",NA,-10,NA,NA,NA,"BEFORE",NA,"SCREENING","FIRST DOSE OF STUDY DRUG",NA,NA
"623","CDISCPILOT01","MH","01-703-1258",7,NA,"VERBATIM_1775","APPENDECTOMY","APPENDICECTOMY","HLT_0707","HLGT_0363","HISTORICAL DIAGNOSIS","SURGICAL AND MEDICAL PROCEDURES",NA,1,"SCREENING 1",-7,"2012-07-10","1952",-10,NA,NA,NA,"BEFORE",NA,"SCREENING","FIRST DOSE OF STUDY DRUG",NA,NA
"624","CDISCPILOT01","MH","01-703-1279",2,NA,"ALZHEIMER'S DISEASE",NA,NA,NA,NA,"PRIMARY DIAGNOSIS",NA,NA,1,"SCREENING 1",-7,"2013-04-27","2010-07-29",-16,"2011-07-07","Y","Y",NA,"BEFORE",NA,"SCREENING","BEFORE",NA
"625","CDISCPILOT01","MH","01-703-1279",1,"E01","VERBATIM_1309","ARTHRITIS","ARTHRITIS","HLT_0019","HLGT_0587","SIGNIFICANT PRE-EXISTING CONDITION","MUSCULOSKELETAL AND CONNECTIVE TISSUE DISORDERS","MILD",1,"SCREENING 1",-7,"2013-04-27",NA,-16,NA,NA,NA,"BEFORE",NA,"SCREENING","FIRST DOSE OF STUDY DRUG",NA,NA
"626","CDISCPILOT01","MH","01-703-1295",7,NA,"ALZHEIMER'S DISEASE",NA,NA,NA,NA,"PRIMARY DIAGNOSIS",NA,NA,1,"SCREENING 1",-7,"2013-10-24","2012-04-05",-28,"2012-07-26","Y","Y",NA,"BEFORE",NA,"SCREENING","BEFORE",NA
"627","CDISCPILOT01","MH","01-703-1295",1,"E02","VERBATIM_0109","PAIN IN HIP","ARTHRALGIA","HLT_0375","HLGT_0610","SIGNIFICANT PRE-EXISTING CONDITION","MUSCULOSKELETAL AND CONNECTIVE TISSUE DISORDERS","MILD",1,"SCREENING 1",-7,"2013-10-24",NA,-28,NA,NA,NA,"BEFORE",NA,"SCREENING","FIRST DOSE OF STUDY DRUG",NA,NA
"628","CDISCPILOT01","MH","01-703-1295",2,"E04","VERBATIM_0391","HEARING LOSS","DEAFNESS","HLT_0234","HLGT_0025","SIGNIFICANT PRE-EXISTING CONDITION","EAR AND LABYRINTH DISORDERS","MILD",1,"SCREENING 1",-7,"2013-10-24",NA,-28,NA,NA,NA,"BEFORE",NA,"SCREENING","FIRST DOSE OF STUDY DRUG",NA,NA
"629","CDISCPILOT01","MH","01-703-1295",3,"E03","VERBATIM_0443","CONSTIPATION","CONSTIPATION","HLT_0402","HLGT_0635","SIGNIFICANT PRE-EXISTING CONDITION","GASTROINTESTINAL DISORDERS","MILD",1,"SCREENING 1",-7,"2013-10-24",NA,-28,NA,NA,NA,"BEFORE",NA,"SCREENING","FIRST DOSE OF STUDY DRUG",NA,NA
"630","CDISCPILOT01","MH","01-703-1295",6,NA,"VERBATIM_1074","FRACTURE TREATMENT","FRACTURE TREATMENT","HLT_0650","HLGT_0620","HISTORICAL DIAGNOSIS","SURGICAL AND MEDICAL PROCEDURES",NA,1,"SCREENING 1",-7,"2013-10-24","2012-04",-28,NA,NA,NA,"BEFORE",NA,"SCREENING","FIRST DOSE OF STUDY DRUG",NA,NA
"631","CDISCPILOT01","MH","01-703-1295",4,"E05","VERBATIM_1424","PAGET'S DISEASE","OSTEITIS DEFORMANS","HLT_0459","HLGT_0692","SIGNIFICANT PRE-EXISTING CONDITION","MUSCULOSKELETAL AND CONNECTIVE TISSUE DISORDERS","MODERATE",1,"SCREENING 1",-7,"2013-10-24",NA,-28,NA,NA,NA,"BEFORE",NA,"SCREENING","FIRST DOSE OF STUDY DRUG",NA,NA
"632","CDISCPILOT01","MH","01-703-1295",5,"E01","VERBATIM_1512","HYPOTHYROIDISM","HYPOTHYROIDISM","HLT_0454","HLGT_0558","SIGNIFICANT PRE-EXISTING CONDITION","ENDOCRINE DISORDERS","MILD",1,"SCREENING 1",-7,"2013-10-24",NA,-28,NA,NA,NA,"BEFORE",NA,"SCREENING","FIRST DOSE OF STUDY DRUG",NA,NA
"633","CDISCPILOT01","MH","01-703-1299",8,NA,"ALZHEIMER'S DISEASE",NA,NA,NA,NA,"PRIMARY DIAGNOSIS",NA,NA,1,"SCREENING 1",-7,"2012-09-07","2011-09-16",-5,"2012-04-29","Y","Y",NA,"BEFORE",NA,"SCREENING","BEFORE",NA
"634","CDISCPILOT01","MH","01-703-1299",1,"E01","VERBATIM_0308","GLAUCOMA","GLAUCOMA","HLT_0556","HLGT_0734","SIGNIFICANT PRE-EXISTING CONDITION","EYE DISORDERS","MILD",1,"SCREENING 1",-7,"2012-09-07",NA,-5,NA,NA,NA,"BEFORE",NA,"SCREENING","FIRST DOSE OF STUDY DRUG",NA,NA
"635","CDISCPILOT01","MH","01-703-1299",6,NA,"VERBATIM_0393","COLECTOMY","COLECTOMY","HLT_0054","HLGT_0052","HISTORICAL DIAGNOSIS","SURGICAL AND MEDICAL PROCEDURES",NA,1,"SCREENING 1",-7,"2012-09-07","2007",-5,NA,NA,NA,"BEFORE",NA,"SCREENING","FIRST DOSE OF STUDY DRUG",NA,NA
"636","CDISCPILOT01","MH","01-703-1299",2,"E04","VERBATIM_0584","HEARING DECREASED","HYPOACUSIS","HLT_0174","HLGT_0589","SIGNIFICANT PRE-EXISTING CONDITION","EAR AND LABYRINTH DISORDERS","MILD",1,"SCREENING 1",-7,"2012-09-07",NA,-5,NA,NA,NA,"BEFORE",NA,"SCREENING","FIRST DOSE OF STUDY DRUG",NA,NA
"637","CDISCPILOT01","MH","01-703-1299",3,"E03","VERBATIM_1309","ARTHRITIS","ARTHRITIS","HLT_0019","HLGT_0587","SIGNIFICANT PRE-EXISTING CONDITION","MUSCULOSKELETAL AND CONNECTIVE TISSUE DISORDERS","MILD",1,"SCREENING 1",-7,"2012-09-07",NA,-5,NA,NA,NA,"BEFORE",NA,"SCREENING","FIRST DOSE OF STUDY DRUG",NA,NA
"638","CDISCPILOT01","MH","01-703-1299",4,NA,"VERBATIM_1390","BREAST CANCER","BREAST CANCER","HLT_0101","HLGT_0442","HISTORICAL DIAGNOSIS","NEOPLASMS BENIGN, MALIGNANT AND UNSPECIFIED (INCL CYSTS AND POLYPS)",NA,1,"SCREENING 1",-7,"2012-09-07","2004",-5,NA,NA,NA,"BEFORE",NA,"SCREENING","FIRST DOSE OF STUDY DRUG",NA,NA
"639","CDISCPILOT01","MH","01-703-1299",5,NA,"VERBATIM_1415","MASTECTOMY","MASTECTOMY","HLT_0729","HLGT_0669","HISTORICAL DIAGNOSIS","SURGICAL AND MEDICAL PROCEDURES",NA,1,"SCREENING 1",-7,"2012-09-07","2004",-5,NA,NA,NA,"BEFORE",NA,"SCREENING","FIRST DOSE OF STUDY DRUG",NA,NA
"640","CDISCPILOT01","MH","01-703-1299",7,NA,"VERBATIM_1602","INTESTINAL OBSTRUCTION","INTESTINAL OBSTRUCTION","HLT_0468","HLGT_0515","HISTORICAL DIAGNOSIS","GASTROINTESTINAL DISORDERS",NA,1,"SCREENING 1",-7,"2012-09-07","2007",-5,NA,NA,NA,"BEFORE",NA,"SCREENING","FIRST DOSE OF STUDY DRUG",NA,NA
"641","CDISCPILOT01","MH","01-703-1335",3,NA,"ALZHEIMER'S DISEASE",NA,NA,NA,NA,"PRIMARY DIAGNOSIS",NA,NA,1,"SCREENING 1",-7,"2014-02-28","2008-01-30",-17,"2008-04-06","Y","Y",NA,"BEFORE",NA,"SCREENING","BEFORE",NA
"642","CDISCPILOT01","MH","01-703-1335",2,NA,"VERBATIM_0064","PEPTIC ULCER","PEPTIC ULCER","HLT_0113","HLGT_0482","HISTORICAL DIAGNOSIS","GASTROINTESTINAL DISORDERS",NA,1,"SCREENING 1",-7,"2014-02-28","2007",-17,NA,NA,NA,"BEFORE",NA,"SCREENING","FIRST DOSE OF STUDY DRUG",NA,NA
"643","CDISCPILOT01","MH","01-703-1335",1,"E02","VERBATIM_1309","ARTHRITIS","ARTHRITIS","HLT_0019","HLGT_0587","SIGNIFICANT PRE-EXISTING CONDITION","MUSCULOSKELETAL AND CONNECTIVE TISSUE DISORDERS","MILD",1,"SCREENING 1",-7,"2014-02-28",NA,-17,NA,NA,NA,"BEFORE",NA,"SCREENING","FIRST DOSE OF STUDY DRUG",NA,NA
"644","CDISCPILOT01","MH","01-703-1379",8,NA,"ALZHEIMER'S DISEASE",NA,NA,NA,NA,"PRIMARY DIAGNOSIS",NA,NA,1,"SCREENING 1",-7,"2013-09-12","2009-09-21",-10,"2010-05-29","Y","Y",NA,"BEFORE",NA,"SCREENING","BEFORE",NA
"645","CDISCPILOT01","MH","01-703-1379",1,"E02","VERBATIM_0277","MITRAL VALVE DISEASE","MITRAL VALVE DISEASE","HLT_0755","HLGT_0053","SIGNIFICANT PRE-EXISTING CONDITION","CARDIAC DISORDERS","MILD",1,"SCREENING 1",-7,"2013-09-12",NA,-10,NA,NA,NA,"BEFORE",NA,"SCREENING","FIRST DOSE OF STUDY DRUG",NA,NA
"646","CDISCPILOT01","MH","01-703-1379",2,"E03","VERBATIM_0342","HYPERTENSION","HYPERTENSION","HLT_0228","HLGT_0476","SIGNIFICANT PRE-EXISTING CONDITION","VASCULAR DISORDERS","MILD",1,"SCREENING 1",-7,"2013-09-12",NA,-10,NA,NA,NA,"BEFORE",NA,"SCREENING","FIRST DOSE OF STUDY DRUG",NA,NA
"647","CDISCPILOT01","MH","01-703-1379",3,"E07","VERBATIM_0568","ATHEROSCLEROSIS","ATHEROSCLEROSIS","HLT_0129","HLGT_0455","SIGNIFICANT PRE-EXISTING CONDITION","VASCULAR DISORDERS","MILD",1,"SCREENING 1",-7,"2013-09-12",NA,-10,NA,NA,NA,"BEFORE",NA,"SCREENING","FIRST DOSE OF STUDY DRUG",NA,NA
"648","CDISCPILOT01","MH","01-703-1379",9,NA,"VERBATIM_0624","STASIS ULCER","SKIN ULCER","HLT_0005","HLGT_0017","HISTORICAL DIAGNOSIS","SKIN AND SUBCUTANEOUS TISSUE DISORDERS",NA,1,"SCREENING 1",-7,"2013-09-12","2011",-10,NA,NA,NA,"BEFORE",NA,"SCREENING","FIRST DOSE OF STUDY DRUG",NA,NA
"649","CDISCPILOT01","MH","01-703-1379",4,"E04","VERBATIM_0738","NON-INSULIN-DEPENDENT DIABETES MELLITUS","DIABETES MELLITUS NON-INSULIN-DEPENDENT","HLT_0706","HLGT_0092","SIGNIFICANT PRE-EXISTING CONDITION","METABOLISM AND NUTRITION DISORDERS","MILD",1,"SCREENING 1",-7,"2013-09-12",NA,-10,NA,NA,NA,"BEFORE",NA,"SCREENING","FIRST DOSE OF STUDY DRUG",NA,NA
"650","CDISCPILOT01","MH","01-703-1379",5,"E06","VERBATIM_0980","GOUT","GOUT","HLT_0396","HLGT_0479","SIGNIFICANT PRE-EXISTING CONDITION","METABOLISM AND NUTRITION DISORDERS","MILD",1,"SCREENING 1",-7,"2013-09-12",NA,-10,NA,NA,NA,"BEFORE",NA,"SCREENING","FIRST DOSE OF STUDY DRUG",NA,NA
"651","CDISCPILOT01","MH","01-703-1379",7,NA,"VERBATIM_1615","UTERINE BENIGN NEOPLASM REMOVAL","UTERINE TUMOUR EXCISION","HLT_0081","HLGT_0357","HISTORICAL DIAGNOSIS","SURGICAL AND MEDICAL PROCEDURES",NA,1,"SCREENING 1",-7,"2013-09-12","1971",-10,NA,NA,NA,"BEFORE",NA,"SCREENING","FIRST DOSE OF STUDY DRUG",NA,NA
"652","CDISCPILOT01","MH","01-703-1379",6,"E05","VERBATIM_1734","DEGENERATIVE JOINT DISEASE","OSTEOARTHRITIS","HLT_0247","HLGT_0462","SIGNIFICANT PRE-EXISTING CONDITION","MUSCULOSKELETAL AND CONNECTIVE TISSUE DISORDERS","MILD",1,"SCREENING 1",-7,"2013-09-12",NA,-10,NA,NA,NA,"BEFORE",NA,"SCREENING","FIRST DOSE OF STUDY DRUG",NA,NA
"653","CDISCPILOT01","MH","01-703-1403",4,NA,"ALZHEIMER'S DISEASE",NA,NA,NA,NA,"PRIMARY DIAGNOSIS",NA,NA,1,"SCREENING 1",-7,"2012-12-05","2010-12-07",-7,"2011-03-29","Y","Y",NA,"BEFORE",NA,"SCREENING","BEFORE",NA
"654","CDISCPILOT01","MH","01-703-1403",1,"E04","VERBATIM_0786","HEARING DECREASED","HYPOACUSIS","HLT_0174","HLGT_0589","SIGNIFICANT PRE-EXISTING CONDITION","EAR AND LABYRINTH DISORDERS","MILD",1,"SCREENING 1",-7,"2012-12-05",NA,-7,NA,NA,NA,"BEFORE",NA,"SCREENING","FIRST DOSE OF STUDY DRUG",NA,NA
"655","CDISCPILOT01","MH","01-703-1403",2,"E05","VERBATIM_1333","RIGHT CATARACT","CATARACT","HLT_0090","HLGT_0498","SIGNIFICANT PRE-EXISTING CONDITION","EYE DISORDERS","MILD",1,"SCREENING 1",-7,"2012-12-05",NA,-7,NA,NA,NA,"BEFORE",NA,"SCREENING","FIRST DOSE OF STUDY DRUG",NA,NA
"656","CDISCPILOT01","MH","01-703-1403",3,"E06","VERBATIM_1610","LACERATION OF FINGER","SKIN LACERATION","HLT_0075","HLGT_0118","SIGNIFICANT PRE-EXISTING CONDITION","INJURY, POISONING AND PROCEDURAL COMPLICATIONS","MODERATE",1,"SCREENING 1",-7,"2012-12-05",NA,-7,NA,NA,NA,"BEFORE",NA,"SCREENING","FIRST DOSE OF STUDY DRUG",NA,NA
"657","CDISCPILOT01","MH","01-703-1439",3,NA,"ALZHEIMER'S DISEASE",NA,NA,NA,NA,"PRIMARY DIAGNOSIS",NA,NA,1,"SCREENING 1",-7,"2014-03-04","2010-07-29",-8,"2011-07-12","Y","Y",NA,"BEFORE",NA,"SCREENING","BEFORE",NA
"658","CDISCPILOT01","MH","01-703-1439",2,NA,"VERBATIM_0503","HIP REPLACEMENT","HIP ARTHROPLASTY","HLT_0709","HLGT_0449","HISTORICAL DIAGNOSIS","SURGICAL AND MEDICAL PROCEDURES",NA,1,"SCREENING 1",-7,"2014-03-04","2010",-8,NA,NA,NA,"BEFORE",NA,"SCREENING","FIRST DOSE OF STUDY DRUG",NA,NA
"659","CDISCPILOT01","MH","01-703-1439",4,NA,"VERBATIM_0720","KNEE TOTAL REPLACEMENT","KNEE ARTHROPLASTY","HLT_0710","HLGT_0078","HISTORICAL DIAGNOSIS","SURGICAL AND MEDICAL PROCEDURES",NA,1,"SCREENING 1",-7,"2014-03-04","2011",-8,NA,NA,NA,"BEFORE",NA,"SCREENING","FIRST DOSE OF STUDY DRUG",NA,NA
"660","CDISCPILOT01","MH","01-703-1439",1,NA,"VERBATIM_1009","MENOPAUSE","MENOPAUSE","HLT_0723","HLGT_0632","HISTORICAL DIAGNOSIS","SOCIAL CIRCUMSTANCES",NA,1,"SCREENING 1",-7,"2014-03-04","1992",-8,NA,NA,NA,"BEFORE",NA,"SCREENING","FIRST DOSE OF STUDY DRUG",NA,NA
"661","CDISCPILOT01","MH","01-704-1008",5,NA,"ALZHEIMER'S DISEASE",NA,NA,NA,NA,"PRIMARY DIAGNOSIS",NA,NA,1,"SCREENING 1",-7,"2013-01-06","2011-10-17",-7,"2011-10-24","Y","Y",NA,"BEFORE",NA,"SCREENING","BEFORE",NA
"662","CDISCPILOT01","MH","01-704-1008",1,"E04","VERBATIM_0301","HEADACHE","HEADACHE","HLT_0064","HLGT_0344","SIGNIFICANT PRE-EXISTING CONDITION","NERVOUS SYSTEM DISORDERS","MILD",1,"SCREENING 1",-7,"2013-01-06",NA,-7,NA,NA,NA,"BEFORE",NA,"SCREENING","FIRST DOSE OF STUDY DRUG",NA,NA
"663","CDISCPILOT01","MH","01-704-1008",7,NA,"VERBATIM_0371","RIGHT CATARACT EXTRACTION","CATARACT OPERATION","HLT_0432","HLGT_0058","HISTORICAL DIAGNOSIS","SURGICAL AND MEDICAL PROCEDURES",NA,1,"SCREENING 1",-7,"2013-01-06","2012-07-21",-7,"2012-09-20",NA,NA,"BEFORE","BEFORE","SCREENING","FIRST DOSE OF STUDY DRUG","BEFORE",NA
"664","CDISCPILOT01","MH","01-704-1008",2,"E02","VERBATIM_0391","HEARING LOSS","DEAFNESS","HLT_0234","HLGT_0025","SIGNIFICANT PRE-EXISTING CONDITION","EAR AND LABYRINTH DISORDERS","MILD",1,"SCREENING 1",-7,"2013-01-06",NA,-7,NA,NA,NA,"BEFORE",NA,"SCREENING","FIRST DOSE OF STUDY DRUG",NA,NA
"665","CDISCPILOT01","MH","01-704-1008",3,"E01","VERBATIM_0692","HYPOTHYROIDISM","HYPOTHYROIDISM","HLT_0454","HLGT_0558","SIGNIFICANT PRE-EXISTING CONDITION","ENDOCRINE DISORDERS","MILD",1,"SCREENING 1",-7,"2013-01-06",NA,-7,NA,NA,NA,"BEFORE",NA,"SCREENING","FIRST DOSE OF STUDY DRUG",NA,NA
"666","CDISCPILOT01","MH","01-704-1008",6,NA,"VERBATIM_1534","BIOPSY BREAST NORMAL","BIOPSY BREAST NORMAL","HLT_0575","HLGT_0269","HISTORICAL DIAGNOSIS","INVESTIGATIONS",NA,1,"SCREENING 1",-7,"2013-01-06","2012-01",-7,NA,NA,NA,"BEFORE",NA,"SCREENING","FIRST DOSE OF STUDY DRUG",NA,NA
"667","CDISCPILOT01","MH","01-704-1008",4,NA,"VERBATIM_1775","APPENDECTOMY","APPENDICECTOMY","HLT_0707","HLGT_0363","HISTORICAL DIAGNOSIS","SURGICAL AND MEDICAL PROCEDURES",NA,1,"SCREENING 1",-7,"2013-01-06","1956",-7,NA,NA,NA,"BEFORE",NA,"SCREENING","FIRST DOSE OF STUDY DRUG",NA,NA
"668","CDISCPILOT01","MH","01-704-1009",6,NA,"ALZHEIMER'S DISEASE",NA,NA,NA,NA,"PRIMARY DIAGNOSIS",NA,NA,1,"SCREENING 1",-7,"2013-08-20","2009-02-03",-7,"2009-05-24","Y","Y",NA,"BEFORE",NA,"SCREENING","BEFORE",NA
"669","CDISCPILOT01","MH","01-704-1009",1,"E06","VERBATIM_0292","INTERMITTENT HEADACHE","HEADACHE","HLT_0064","HLGT_0344","SIGNIFICANT PRE-EXISTING CONDITION","NERVOUS SYSTEM DISORDERS","MILD",1,"SCREENING 1",-7,"2013-08-20",NA,-7,NA,NA,NA,"BEFORE",NA,"SCREENING","FIRST DOSE OF STUDY DRUG",NA,NA
"670","CDISCPILOT01","MH","01-704-1009",2,"E05","VERBATIM_1029","SEASONAL ALLERGY","SEASONAL ALLERGY","HLT_0714","HLGT_0782","SIGNIFICANT PRE-EXISTING CONDITION","IMMUNE SYSTEM DISORDERS","MILD",1,"SCREENING 1",-7,"2013-08-20",NA,-7,NA,NA,NA,"BEFORE",NA,"SCREENING","FIRST DOSE OF STUDY DRUG",NA,NA
"671","CDISCPILOT01","MH","01-704-1009",3,"E02","VERBATIM_1309","ARTHRITIS","ARTHRITIS","HLT_0019","HLGT_0587","SIGNIFICANT PRE-EXISTING CONDITION","MUSCULOSKELETAL AND CONNECTIVE TISSUE DISORDERS","MILD",1,"SCREENING 1",-7,"2013-08-20",NA,-7,NA,NA,NA,"BEFORE",NA,"SCREENING","FIRST DOSE OF STUDY DRUG",NA,NA
"672","CDISCPILOT01","MH","01-704-1009",4,"E11","VERBATIM_1635","MYOCARDIAL INFARCTION","MYOCARDIAL INFARCTION","HLT_0649","HLGT_0688","SIGNIFICANT PRE-EXISTING CONDITION","CARDIAC DISORDERS","MILD",1,"SCREENING 1",-7,"2013-08-20",NA,-7,NA,NA,NA,"BEFORE",NA,"SCREENING","FIRST DOSE OF STUDY DRUG",NA,NA
"673","CDISCPILOT01","MH","01-704-1009",5,"E01","VERBATIM_1646","ENLARGED PROSTATE","BENIGN PROSTATIC HYPERPLASIA","HLT_0215","HLGT_0568","SIGNIFICANT PRE-EXISTING CONDITION","REPRODUCTIVE SYSTEM AND BREAST DISORDERS","MILD",1,"SCREENING 1",-7,"2013-08-20",NA,-7,NA,NA,NA,"BEFORE",NA,"SCREENING","FIRST DOSE OF STUDY DRUG",NA,NA
"674","CDISCPILOT01","MH","01-704-1010",9,NA,"ALZHEIMER'S DISEASE",NA,NA,NA,NA,"PRIMARY DIAGNOSIS",NA,NA,1,"SCREENING 1",-7,"2014-02-08","2006-01-02",-13,"2006-01-21","Y","Y",NA,"BEFORE",NA,"SCREENING","BEFORE",NA
"675","CDISCPILOT01","MH","01-704-1010",8,NA,"VERBATIM_0257","FRACTURE OF PATELLA","PATELLA FRACTURE","HLT_0044","HLGT_0712","HISTORICAL DIAGNOSIS","INJURY, POISONING AND PROCEDURAL COMPLICATIONS",NA,1,"SCREENING 1",-7,"2014-02-08","1994-05",-13,NA,NA,NA,"BEFORE",NA,"SCREENING","FIRST DOSE OF STUDY DRUG",NA,NA
"676","CDISCPILOT01","MH","01-704-1010",1,"E02","VERBATIM_0342","HYPERTENSION","HYPERTENSION","HLT_0228","HLGT_0476","SIGNIFICANT PRE-EXISTING CONDITION","VASCULAR DISORDERS","MILD",1,"SCREENING 1",-7,"2014-02-08",NA,-13,NA,NA,NA,"BEFORE",NA,"SCREENING","FIRST DOSE OF STUDY DRUG",NA,NA
"677","CDISCPILOT01","MH","01-704-1010",2,NA,"VERBATIM_0472","INGUINAL HERNIA","INGUINAL HERNIA","HLT_0388","HLGT_0368","HISTORICAL DIAGNOSIS","GASTROINTESTINAL DISORDERS",NA,1,"SCREENING 1",-7,"2014-02-08","1957",-13,NA,NA,NA,"BEFORE",NA,"SCREENING","FIRST DOSE OF STUDY DRUG",NA,NA
"678","CDISCPILOT01","MH","01-704-1010",3,NA,"VERBATIM_0472","INGUINAL HERNIA","INGUINAL HERNIA","HLT_0388","HLGT_0368","HISTORICAL DIAGNOSIS","GASTROINTESTINAL DISORDERS",NA,1,"SCREENING 1",-7,"2014-02-08","1959",-13,NA,NA,NA,"BEFORE",NA,"SCREENING","FIRST DOSE OF STUDY DRUG",NA,NA
"679","CDISCPILOT01","MH","01-704-1010",4,NA,"VERBATIM_0472","INGUINAL HERNIA","INGUINAL HERNIA","HLT_0388","HLGT_0368","HISTORICAL DIAGNOSIS","GASTROINTESTINAL DISORDERS",NA,1,"SCREENING 1",-7,"2014-02-08","1967",-13,NA,NA,NA,"BEFORE",NA,"SCREENING","FIRST DOSE OF STUDY DRUG",NA,NA
"680","CDISCPILOT01","MH","01-704-1010",5,NA,"VERBATIM_0472","INGUINAL HERNIA","INGUINAL HERNIA","HLT_0388","HLGT_0368","HISTORICAL DIAGNOSIS","GASTROINTESTINAL DISORDERS",NA,1,"SCREENING 1",-7,"2014-02-08","1972",-13,NA,NA,NA,"BEFORE",NA,"SCREENING","FIRST DOSE OF STUDY DRUG",NA,NA
"681","CDISCPILOT01","MH","01-704-1010",6,NA,"VERBATIM_0472","INGUINAL HERNIA","INGUINAL HERNIA","HLT_0388","HLGT_0368","HISTORICAL DIAGNOSIS","GASTROINTESTINAL DISORDERS",NA,1,"SCREENING 1",-7,"2014-02-08","1978",-13,NA,NA,NA,"BEFORE",NA,"SCREENING","FIRST DOSE OF STUDY DRUG",NA,NA
"682","CDISCPILOT01","MH","01-704-1010",7,NA,"VERBATIM_0472","INGUINAL HERNIA","INGUINAL HERNIA","HLT_0388","HLGT_0368","HISTORICAL DIAGNOSIS","GASTROINTESTINAL DISORDERS",NA,1,"SCREENING 1",-7,"2014-02-08","1986",-13,NA,NA,NA,"BEFORE",NA,"SCREENING","FIRST DOSE OF STUDY DRUG",NA,NA
"683","CDISCPILOT01","MH","01-704-1017",9,NA,"ALZHEIMER'S DISEASE",NA,NA,NA,NA,"PRIMARY DIAGNOSIS",NA,NA,1,"SCREENING 1",-7,"2013-09-20","2011-03-27",-16,"2011-05-18","Y","Y",NA,"BEFORE",NA,"SCREENING","BEFORE",NA
"684","CDISCPILOT01","MH","01-704-1017",1,"E08","VERBATIM_0572","CARDIAC DISORDER","CARDIAC DISORDER","HLT_0507","HLGT_0126","SIGNIFICANT PRE-EXISTING CONDITION","CARDIAC DISORDERS","MILD",1,"SCREENING 1",-7,"2013-09-20",NA,-16,NA,NA,NA,"BEFORE",NA,"SCREENING","FIRST DOSE OF STUDY DRUG",NA,NA
"685","CDISCPILOT01","MH","01-704-1017",2,"E06","VERBATIM_0608","LIBIDO INCREASED","LIBIDO INCREASED","HLT_0367","HLGT_0494","SIGNIFICANT PRE-EXISTING CONDITION","PSYCHIATRIC DISORDERS","MILD",1,"SCREENING 1",-7,"2013-09-20",NA,-16,NA,NA,NA,"BEFORE",NA,"SCREENING","FIRST DOSE OF STUDY DRUG",NA,NA
"686","CDISCPILOT01","MH","01-704-1017",3,"E10","VERBATIM_0806","ST SEGMENT ELEVATED","ELECTROCARDIOGRAM ST SEGMENT ELEVATION","HLT_0272","HLGT_0116","SIGNIFICANT PRE-EXISTING CONDITION","INVESTIGATIONS","MILD",1,"SCREENING 1",-7,"2013-09-20",NA,-16,NA,NA,NA,"BEFORE",NA,"SCREENING","FIRST DOSE OF STUDY DRUG",NA,NA
"687","CDISCPILOT01","MH","01-704-1017",4,"E07","VERBATIM_0811","MYOCARDIAL INFARCTION","MYOCARDIAL INFARCTION","HLT_0649","HLGT_0688","SIGNIFICANT PRE-EXISTING CONDITION","CARDIAC DISORDERS","MILD",1,"SCREENING 1",-7,"2013-09-20",NA,-16,NA,NA,NA,"BEFORE",NA,"SCREENING","FIRST DOSE OF STUDY DRUG",NA,NA
"688","CDISCPILOT01","MH","01-704-1017",7,NA,"VERBATIM_0954","HEART ATTACK","MYOCARDIAL INFARCTION","HLT_0649","HLGT_0688","HISTORICAL DIAGNOSIS","CARDIAC DISORDERS",NA,1,"SCREENING 1",-7,"2013-09-20","2000-05-15",-16,"2000-06-19",NA,NA,"BEFORE","BEFORE","SCREENING","FIRST DOSE OF STUDY DRUG","BEFORE",NA
"689","CDISCPILOT01","MH","01-704-1017",5,"E09","VERBATIM_1153","ST SEGMENT DEPRESSED","ELECTROCARDIOGRAM ST SEGMENT DEPRESSION","HLT_0610","HLGT_0220","SIGNIFICANT PRE-EXISTING CONDITION","INVESTIGATIONS","MILD",1,"SCREENING 1",-7,"2013-09-20",NA,-16,NA,NA,NA,"BEFORE",NA,"SCREENING","FIRST DOSE OF STUDY DRUG",NA,NA
"690","CDISCPILOT01","MH","01-704-1017",8,NA,"VERBATIM_1486","TRIPLE VESSEL BYPASS GRAFT","TRIPLE VESSEL BYPASS GRAFT","HLT_0414","HLGT_0399","HISTORICAL DIAGNOSIS","SURGICAL AND MEDICAL PROCEDURES",NA,1,"SCREENING 1",-7,"2013-09-20","2006-12-16",-16,"2008-01-07",NA,NA,"BEFORE","BEFORE","SCREENING","FIRST DOSE OF STUDY DRUG","BEFORE",NA
